Time,Extension,Load
(sec),(mm),(N)
0.00000,0.00000,-0.00470
0.10000,-0.00173,-0.01636
0.20000,-0.01440,-0.02005
0.30000,-0.02747,-0.01532
0.40000,-0.03853,-0.01991
0.50000,-0.04920,-0.02166
0.60000,-0.05960,-0.01483
0.70000,-0.06973,-0.03047
0.80000,-0.07973,-0.03633
0.90000,-0.09013,-0.02764
1.00000,-0.09973,-0.03415
1.10000,-0.10987,-0.02826
1.20000,-0.12013,-0.04061
1.30000,-0.12987,-0.03481
1.40000,-0.14013,-0.03776
1.50000,-0.15013,-0.04311
1.60000,-0.15973,-0.04549
1.70000,-0.17027,-0.04678
1.80000,-0.18013,-0.05265
1.90000,-0.18987,-0.04610
2.00000,-0.20000,-0.05304
2.10000,-0.20987,-0.04501
2.20000,-0.22000,-0.05593
2.30000,-0.22987,-0.06373
2.40000,-0.23987,-0.07178
2.50000,-0.24987,-0.06289
2.60000,-0.25973,-0.06067
2.70000,-0.27013,-0.06374
2.80000,-0.27987,-0.07038
2.90000,-0.29000,-0.07547
3.00000,-0.30013,-0.07300
3.10000,-0.30973,-0.05946
3.20000,-0.32000,-0.07241
3.30000,-0.33000,-0.08018
3.40000,-0.33960,-0.08336
3.50000,-0.35000,-0.08322
3.60000,-0.35987,-0.07852
3.70000,-0.36987,-0.08107
3.80000,-0.38013,-0.07947
3.90000,-0.39000,-0.07565
4.00000,-0.40000,-0.09006
4.10000,-0.41013,-0.08497
4.20000,-0.42013,-0.09789
4.30000,-0.43000,-0.09464
4.40000,-0.44000,-0.09759
4.50000,-0.45013,-0.10091
4.60000,-0.45987,-0.09298
4.70000,-0.47000,-0.09768
4.80000,-0.47987,-0.10514
4.90000,-0.48960,-0.10227
5.00000,-0.50013,-0.10426
5.10000,-0.50987,-0.10397
5.20000,-0.51987,-0.11246
5.30000,-0.53013,-0.11010
5.40000,-0.53987,-0.11376
5.50000,-0.55013,-0.10292
5.60000,-0.56027,-0.11146
5.70000,-0.57000,-0.10657
5.80000,-0.58000,-0.11711
5.90000,-0.59013,-0.11435
6.00000,-0.60013,-0.12109
6.10000,-0.60987,-0.11639
6.20000,-0.62027,-0.12626
6.30000,-0.62987,-0.12939
6.40000,-0.63960,-0.13495
6.50000,-0.65027,-0.13019
6.60000,-0.65987,-0.12558
6.70000,-0.66987,-0.13641
6.80000,-0.68013,-0.14050
6.90000,-0.68986,-0.13370
7.00000,-0.70000,-0.14005
7.10000,-0.71013,-0.13345
7.20000,-0.71986,-0.14239
7.30000,-0.73000,-0.13749
7.40000,-0.74000,-0.14360
7.50000,-0.75000,-0.14264
7.60000,-0.76000,-0.14152
7.70000,-0.76973,-0.14862
7.80000,-0.78000,-0.14600
7.90000,-0.78986,-0.14738
8.00000,-0.80000,-0.16091
8.10000,-0.81000,-0.15312
8.20000,-0.81973,-0.16258
8.30000,-0.83026,-0.15960
8.40000,-0.84000,-0.16454
8.50000,-0.85000,-0.16435
8.60000,-0.86013,-0.16931
8.70000,-0.86973,-0.17045
8.80000,-0.88000,-0.17413
8.90000,-0.89000,-0.17353
9.00000,-0.89986,-0.18222
9.10000,-0.90986,-0.17594
9.20000,-0.92000,-0.18499
9.30000,-0.93000,-0.17784
9.40000,-0.94000,-0.18713
9.50000,-0.95013,-0.18776
9.60000,-0.96000,-0.19258
9.70000,-0.97000,-0.19940
9.80000,-0.98026,-0.20553
9.90000,-0.99000,-0.20452
10.00000,-0.99973,-0.21965
10.10000,-1.01000,-0.21085
10.20000,-1.01973,-0.21486
10.30000,-1.03000,-0.22283
10.40000,-1.04000,-0.22484
10.50000,-1.04973,-0.22602
10.60000,-1.06013,-0.22511
10.70000,-1.07013,-0.23721
10.80000,-1.08000,-0.23640
10.90000,-1.09013,-0.23741
11.00000,-1.10000,-0.24309
11.10000,-1.11000,-0.24281
11.20000,-1.12013,-0.24751
11.30000,-1.13013,-0.25471
11.40000,-1.13986,-0.26111
11.50000,-1.14986,-0.26554
11.60000,-1.16000,-0.26409
11.70000,-1.16973,-0.27651
11.80000,-1.18000,-0.27766
11.90000,-1.19000,-0.28045
12.00000,-1.19960,-0.28842
12.10000,-1.21013,-0.28054
12.20000,-1.22000,-0.28910
12.30000,-1.23000,-0.29602
12.40000,-1.24000,-0.29676
12.50000,-1.24986,-0.29523
12.60000,-1.26000,-0.29489
12.70000,-1.26986,-0.30323
12.80000,-1.27986,-0.30939
12.90000,-1.28986,-0.30956
13.00000,-1.29973,-0.31774
13.10000,-1.30986,-0.31471
13.20000,-1.31986,-0.32215
13.30000,-1.33000,-0.32426
13.40000,-1.34013,-0.33703
13.50000,-1.34986,-0.33717
13.60000,-1.36013,-0.33958
13.70000,-1.37013,-0.35174
13.80000,-1.37986,-0.35461
13.90000,-1.39026,-0.35064
14.00000,-1.39986,-0.35492
14.10000,-1.40986,-0.35161
14.20000,-1.42013,-0.36515
14.30000,-1.42973,-0.36410
14.40000,-1.44000,-0.37040
14.50000,-1.45013,-0.37547
14.60000,-1.46000,-0.37453
14.70000,-1.47000,-0.38158
14.80000,-1.48000,-0.38232
14.90000,-1.49000,-0.39166
15.00000,-1.50000,-0.38791
15.10000,-1.51026,-0.38703
15.20000,-1.52000,-0.39973
15.30000,-1.52973,-0.39513
15.40000,-1.54026,-0.39446
15.50000,-1.54986,-0.39662
15.60000,-1.55986,-0.39290
15.70000,-1.57013,-0.38281
15.80000,-1.57960,-0.37914
15.90000,-1.59000,-0.37607
16.00000,-1.60013,-0.36738
16.10000,-1.61000,-0.35945
16.20000,-1.62000,-0.37263
16.30000,-1.63013,-0.36995
16.40000,-1.64000,-0.38143
16.50000,-1.65000,-0.37533
16.60000,-1.66013,-0.38405
16.70000,-1.66986,-0.39008
16.80000,-1.67973,-0.40323
16.90000,-1.69013,-0.39825
17.00000,-1.69986,-0.40584
17.10000,-1.70973,-0.40650
17.20000,-1.72013,-0.43023
17.30000,-1.72986,-0.43497
17.40000,-1.74013,-0.44570
17.50000,-1.75013,-0.44242
17.60000,-1.75973,-0.44587
17.70000,-1.77013,-0.45499
17.80000,-1.78013,-0.47479
17.90000,-1.79013,-0.47600
18.00000,-1.80000,-0.47656
18.10000,-1.80986,-0.47689
18.20000,-1.82000,-0.47971
18.30000,-1.82973,-0.48155
18.40000,-1.83973,-0.49695
18.50000,-1.84986,-0.49971
18.60000,-1.85960,-0.49076
18.70000,-1.87013,-0.50695
18.80000,-1.87986,-0.51153
18.90000,-1.89013,-0.51709
19.00000,-1.90013,-0.53244
19.10000,-1.90960,-0.53072
19.20000,-1.92000,-0.54578
19.30000,-1.93000,-0.55354
19.40000,-1.93986,-0.56762
19.50000,-1.95000,-0.57448
19.60000,-1.95986,-0.58192
19.70000,-1.96986,-0.59432
19.80000,-1.98000,-0.60440
19.90000,-1.99000,-0.61399
20.00000,-2.00013,-0.63213
20.10000,-2.01013,-0.63883
20.20000,-2.02013,-0.65742
20.30000,-2.03000,-0.65609
20.40000,-2.04013,-0.67227
20.50000,-2.05013,-0.68638
20.60000,-2.05986,-0.69203
20.70000,-2.07013,-0.70328
20.80000,-2.08013,-0.71859
20.90000,-2.08959,-0.72135
21.00000,-2.09999,-0.72650
21.10000,-2.10986,-0.73453
21.20000,-2.11986,-0.75787
21.30000,-2.13013,-0.77319
21.40000,-2.13999,-0.79268
21.50000,-2.15013,-0.80656
21.60000,-2.16013,-0.81805
21.70000,-2.17013,-0.84091
21.80000,-2.18013,-0.85670
21.90000,-2.18986,-0.86392
22.00000,-2.20013,-0.87256
22.10000,-2.20986,-0.88736
22.20000,-2.22013,-0.90781
22.30000,-2.22986,-0.92248
22.40000,-2.23959,-0.94280
22.50000,-2.25013,-0.95089
22.60000,-2.25986,-0.96456
22.70000,-2.26986,-0.99367
22.80000,-2.28013,-1.01037
22.90000,-2.28999,-1.01676
23.00000,-2.30013,-1.02774
23.10000,-2.31013,-1.03827
23.20000,-2.31973,-1.05289
23.30000,-2.32999,-1.06126
23.40000,-2.33986,-1.08132
23.50000,-2.34973,-1.10646
23.60000,-2.35986,-1.11671
23.70000,-2.36973,-1.13237
23.80000,-2.37999,-1.15015
23.90000,-2.38986,-1.16312
24.00000,-2.40013,-1.18133
24.10000,-2.40999,-1.17876
24.20000,-2.41986,-1.20043
24.30000,-2.43026,-1.21474
24.40000,-2.43986,-1.22582
24.50000,-2.44999,-1.23960
24.60000,-2.46013,-1.25660
24.70000,-2.46959,-1.27505
24.80000,-2.47999,-1.29527
24.90000,-2.48986,-1.31047
25.00000,-2.49973,-1.32970
25.10000,-2.50986,-1.33739
25.20000,-2.51973,-1.36352
25.30000,-2.52986,-1.37547
25.40000,-2.53999,-1.41432
25.50000,-2.55026,-1.43251
25.60000,-2.56013,-1.44959
25.70000,-2.57013,-1.47907
25.80000,-2.58013,-1.50305
25.90000,-2.58986,-1.52013
26.00000,-2.59999,-1.53989
26.10000,-2.60999,-1.54156
26.20000,-2.61973,-1.56943
26.30000,-2.62999,-1.59248
26.40000,-2.63999,-1.62849
26.50000,-2.64973,-1.65625
26.60000,-2.66026,-1.68293
26.70000,-2.66999,-1.72052
26.80000,-2.67999,-1.73950
26.90000,-2.69026,-1.78220
27.00000,-2.69999,-1.80863
27.10000,-2.71013,-1.82022
27.20000,-2.71999,-1.84587
27.30000,-2.72999,-1.86518
27.40000,-2.73986,-1.89083
27.50000,-2.74986,-1.91100
27.60000,-2.76013,-1.93982
27.70000,-2.76986,-1.96969
27.80000,-2.78013,-1.99646
27.90000,-2.78986,-2.02241
28.00000,-2.79973,-2.04695
28.10000,-2.81026,-2.06191
28.20000,-2.81986,-2.07707
28.30000,-2.82999,-2.08955
28.40000,-2.84013,-2.11210
28.50000,-2.84986,-2.13545
28.60000,-2.85999,-2.16813
28.70000,-2.86999,-2.19697
28.80000,-2.87986,-2.22117
28.90000,-2.88986,-2.23868
29.00000,-2.89973,-2.26822
29.10000,-2.90973,-2.28590
29.20000,-2.91973,-2.32471
29.30000,-2.92986,-2.35730
29.40000,-2.93999,-2.40600
29.50000,-2.94973,-2.42103
29.60000,-2.96013,-2.44335
29.70000,-2.96999,-2.49326
29.80000,-2.97986,-2.51760
29.90000,-2.99026,-2.53549
30.00000,-2.99986,-2.56603
30.10000,-3.00986,-2.59475
30.20000,-3.02013,-2.63812
30.30000,-3.02959,-2.66966
30.40000,-3.03999,-2.70628
30.50000,-3.05013,-2.72619
30.60000,-3.05999,-2.74892
30.70000,-3.06999,-2.77966
30.80000,-3.07999,-2.81473
30.90000,-3.09013,-2.84279
31.00000,-3.09999,-2.88944
31.10000,-3.11026,-2.91822
31.20000,-3.11986,-2.96930
31.30000,-3.12973,-3.00692
31.40000,-3.14026,-3.05405
31.50000,-3.14986,-3.08432
31.60000,-3.15999,-3.11834
31.70000,-3.17013,-3.15262
31.80000,-3.17973,-3.17810
31.90000,-3.18999,-3.19815
32.00000,-3.19999,-3.21478
32.10000,-3.20986,-3.23793
32.20000,-3.21999,-3.28154
32.30000,-3.22999,-3.31639
32.40000,-3.24013,-3.35157
32.50000,-3.25013,-3.36334
32.60000,-3.26013,-3.38557
32.70000,-3.26999,-3.39438
32.80000,-3.27986,-3.40893
32.90000,-3.29013,-3.42270
33.00000,-3.29986,-3.42565
33.10000,-3.30986,-3.43767
33.20000,-3.32013,-3.46098
33.30000,-3.32986,-3.13370
33.40000,-3.34013,-3.20235
33.50000,-3.35013,-3.27261
33.60000,-3.35973,-3.31099
33.70000,-3.37026,-3.37357
33.80000,-3.38013,-3.41805
33.90000,-3.38986,-3.44428
34.00000,-3.39986,-3.48017
34.10000,-3.40959,-3.51448
34.20000,-3.41986,-3.55148
34.30000,-3.42986,-3.58661
34.40000,-3.43986,-3.63343
34.50000,-3.44986,-3.67810
34.60000,-3.45972,-3.71257
34.70000,-3.47012,-3.75577
34.80000,-3.47986,-3.80219
34.90000,-3.48999,-3.84167
35.00000,-3.49999,-3.88632
35.10000,-3.50972,-3.91039
35.20000,-3.52012,-3.95906
35.30000,-3.52999,-3.99612
35.40000,-3.53972,-4.04182
35.50000,-3.55012,-4.07915
35.60000,-3.55972,-4.11836
35.70000,-3.56972,-4.17275
35.80000,-3.57999,-4.21234
35.90000,-3.58986,-4.23386
36.00000,-3.59999,-4.27513
36.10000,-3.61012,-4.30659
36.20000,-3.62012,-4.34962
36.30000,-3.63012,-4.38867
36.40000,-3.64012,-4.41850
36.50000,-3.65012,-4.47089
36.60000,-3.65972,-4.49559
36.70000,-3.67012,-4.53551
36.80000,-3.67999,-4.57097
36.90000,-3.68972,-4.60002
37.00000,-3.70026,-4.63584
37.10000,-3.70986,-4.66659
37.20000,-3.71986,-4.71819
37.30000,-3.73012,-4.76447
37.40000,-3.73986,-4.79486
37.50000,-3.75012,-4.84160
37.60000,-3.76026,-4.88273
37.70000,-3.77012,-4.92531
37.80000,-3.77999,-4.97093
37.90000,-3.78999,-5.01094
38.00000,-3.79999,-5.06220
38.10000,-3.80986,-5.08884
38.20000,-3.82012,-5.14331
38.30000,-3.82986,-5.14607
38.40000,-3.83959,-5.15364
38.50000,-3.85026,-5.19737
38.60000,-3.85986,-5.20871
38.70000,-3.86986,-5.24795
38.80000,-3.88026,-5.27599
38.90000,-3.88999,-5.30463
39.00000,-3.89999,-5.33543
39.10000,-3.91012,-5.30610
39.20000,-3.91986,-5.35035
39.30000,-3.92999,-5.36993
39.40000,-3.93999,-5.39717
39.50000,-3.94986,-5.42416
39.60000,-3.95986,-5.45680
39.70000,-3.96972,-5.48346
39.80000,-3.97986,-5.45974
39.90000,-3.98986,-5.50341
40.00000,-4.00012,-5.54362
40.10000,-4.00999,-5.57179
40.20000,-4.01986,-5.60175
40.30000,-4.03026,-5.54709
40.40000,-4.03986,-5.57334
40.50000,-4.05012,-5.59100
40.60000,-4.06012,-5.61317
40.70000,-4.06959,-5.63062
40.80000,-4.07999,-5.64664
40.90000,-4.09012,-5.66487
41.00000,-4.09986,-5.68560
41.10000,-4.10986,-5.71058
41.20000,-4.11972,-5.75156
41.30000,-4.12999,-5.77622
41.40000,-4.14012,-5.80220
41.50000,-4.14999,-5.83083
41.60000,-4.15999,-5.87123
41.70000,-4.16999,-5.90334
41.80000,-4.18012,-5.93004
41.90000,-4.18999,-5.95306
42.00000,-4.19999,-5.98123
42.10000,-4.20999,-6.00296
42.20000,-4.21972,-6.03944
42.30000,-4.22999,-6.06080
42.40000,-4.23999,-6.09274
42.50000,-4.24972,-6.09381
42.60000,-4.26012,-6.10389
42.70000,-4.26999,-6.13194
42.80000,-4.27986,-6.15305
42.90000,-4.29026,-6.17972
43.00000,-4.29999,-6.20433
43.10000,-4.31012,-6.22695
43.20000,-4.31999,-6.25153
43.30000,-4.32999,-6.28101
43.40000,-4.33986,-6.30381
43.50000,-4.34986,-6.32101
43.60000,-4.36012,-6.32553
43.70000,-4.36972,-6.34304
43.80000,-4.38012,-6.36337
43.90000,-4.38999,-6.37654
44.00000,-4.39972,-6.38301
44.10000,-4.41039,-6.36790
44.20000,-4.41999,-6.38620
44.30000,-4.42999,-6.39721
44.40000,-4.44026,-6.41908
44.50000,-4.44986,-6.43917
44.60000,-4.45999,-6.46100
44.70000,-4.46999,-6.47515
44.80000,-4.47986,-6.49323
44.90000,-4.48986,-6.52426
45.00000,-4.49972,-6.54430
45.10000,-4.50986,-6.56191
45.20000,-4.51972,-6.59571
45.30000,-4.52999,-6.62598
45.40000,-4.54012,-6.65941
45.50000,-4.54986,-6.67962
45.60000,-4.56012,-6.71749
45.70000,-4.56999,-6.73713
45.80000,-4.57986,-6.77851
45.90000,-4.59039,-6.80616
46.00000,-4.59999,-6.83113
46.10000,-4.60986,-6.85576
46.20000,-4.61999,-6.87854
46.30000,-4.62972,-6.89621
46.40000,-4.63986,-6.91775
46.50000,-4.64999,-6.93373
46.60000,-4.65986,-5.74474
46.70000,-4.66986,-5.69396
46.80000,-4.67999,-5.73199
46.90000,-4.68999,-5.75982
47.00000,-4.69999,-5.79332
47.10000,-4.71012,-5.82983
47.20000,-4.71999,-5.87900
47.30000,-4.72972,-5.92596
47.40000,-4.74025,-5.97035
47.50000,-4.74986,-5.98572
47.60000,-4.75986,-6.02049
47.70000,-4.76999,-6.05784
47.80000,-4.77959,-6.08508
47.90000,-4.78999,-6.11985
48.00000,-4.80012,-6.08580
48.10000,-4.80986,-6.10836
48.20000,-4.81999,-6.14164
48.30000,-4.82999,-6.13848
48.40000,-4.83999,-6.13510
48.50000,-4.85012,-6.14707
48.60000,-4.85999,-6.15983
48.70000,-4.86999,-6.17146
48.80000,-4.87985,-6.18435
48.90000,-4.89012,-6.20447
49.00000,-4.89985,-6.22661
49.10000,-4.90985,-6.22999
49.20000,-4.92025,-6.21672
49.30000,-4.92972,-6.23361
49.40000,-4.93999,-6.25291
49.50000,-4.94999,-6.26381
49.60000,-4.95972,-6.29091
49.70000,-4.97012,-6.32067
49.80000,-4.98012,-6.31411
49.90000,-4.98999,-6.31929
50.00000,-4.99999,-6.33684
50.10000,-5.00972,-6.35358
50.20000,-5.01985,-6.38080
50.30000,-5.02985,-6.39543
50.40000,-5.03985,-6.42146
50.50000,-5.04985,-6.44199
50.60000,-5.05985,-6.45924
50.70000,-5.07012,-6.48226
50.80000,-5.07985,-6.40547
50.90000,-5.08999,-6.41700
51.00000,-5.10012,-6.43041
51.10000,-5.10972,-6.43890
51.20000,-5.12012,-6.47737
51.30000,-5.12999,-6.48625
51.40000,-5.13972,-6.51164
51.50000,-5.14999,-6.52258
51.60000,-5.15985,-6.52822
51.70000,-5.16972,-6.54608
51.80000,-5.17999,-6.55043
51.90000,-5.18985,-6.55432
52.00000,-5.19999,-6.52169
52.10000,-5.21012,-6.51919
52.20000,-5.22012,-6.53740
52.30000,-5.22999,-6.53567
52.40000,-5.23999,-6.54058
52.50000,-5.25012,-6.57229
52.60000,-5.25985,-6.58089
52.70000,-5.27012,-6.61312
52.80000,-5.27999,-6.58012
52.90000,-5.28972,-6.61368
53.00000,-5.30012,-6.61363
53.10000,-5.30972,-6.62612
53.20000,-5.31985,-6.65746
53.30000,-5.33025,-6.66043
53.40000,-5.33972,-6.67276
53.50000,-5.34999,-6.69204
53.60000,-5.36012,-6.70754
53.70000,-5.37012,-6.72545
53.80000,-5.37999,-6.73560
53.90000,-5.39012,-6.67431
54.00000,-5.40012,-6.69851
54.10000,-5.40985,-6.69188
54.20000,-5.42012,-6.72344
54.30000,-5.42985,-6.73254
54.40000,-5.43972,-6.72740
54.50000,-5.45025,-6.76261
54.60000,-5.45985,-6.79040
54.70000,-5.46999,-6.79542
54.80000,-5.48012,-6.80447
54.90000,-5.48985,-6.80794
55.00000,-5.50012,-6.82464
55.10000,-5.51012,-6.83669
55.20000,-5.51985,-6.84514
55.30000,-5.53012,-6.85232
55.40000,-5.53999,-6.83824
55.50000,-5.54985,-6.84497
55.60000,-5.55985,-6.85537
55.70000,-5.56972,-6.88396
55.80000,-5.57999,-6.62209
55.90000,-5.58985,-6.60003
56.00000,-5.59999,-6.60235
56.10000,-5.60999,-6.60890
56.20000,-5.61972,-6.62481
56.30000,-5.63025,-6.54979
56.40000,-5.63985,-6.54663
56.50000,-5.64999,-6.55609
56.60000,-5.66012,-6.56748
56.70000,-5.66959,-6.58215
56.80000,-5.67999,-6.60752
56.90000,-5.68999,-6.61569
57.00000,-5.69972,-6.62376
57.10000,-5.70985,-6.62196
57.20000,-5.71985,-6.64611
57.30000,-5.72985,-6.66773
57.40000,-5.73999,-6.68676
57.50000,-5.75012,-6.69518
57.60000,-5.76012,-6.71363
57.70000,-5.76999,-6.72874
57.80000,-5.78025,-6.74439
57.90000,-5.78999,-6.75734
58.00000,-5.79999,-6.78032
58.10000,-5.80999,-6.79787
58.20000,-5.81972,-6.81450
58.30000,-5.82985,-6.80872
58.40000,-5.83999,-6.83482
58.50000,-5.84972,-6.85600
58.60000,-5.86012,-6.86668
58.70000,-5.87012,-6.87898
58.80000,-5.87999,-6.90762
58.90000,-5.89025,-6.92294
59.00000,-5.89999,-6.91396
59.10000,-5.91012,-6.93409
59.20000,-5.92012,-6.94490
59.30000,-5.93012,-6.95620
59.40000,-5.93985,-6.94228
59.50000,-5.94985,-6.95597
59.60000,-5.95999,-6.97549
59.70000,-5.96972,-6.98834
59.80000,-5.98012,-6.98574
59.90000,-5.98985,-6.99740
60.00000,-5.99959,-7.02364
60.10000,-6.01025,-7.03491
60.20000,-6.01999,-7.06464
60.30000,-6.02985,-7.06516
60.40000,-6.03999,-7.07678
60.50000,-6.04985,-7.08931
60.60000,-6.05999,-7.07041
60.70000,-6.06999,-7.03097
60.80000,-6.07985,-7.05097
60.90000,-6.08972,-7.05292
61.00000,-6.09972,-7.03960
61.10000,-6.10985,-7.04621
61.20000,-6.11985,-7.04950
61.30000,-6.12999,-7.07219
61.40000,-6.14012,-7.09079
61.50000,-6.14985,-7.10713
61.60000,-6.16012,-7.12008
61.70000,-6.16999,-7.13792
61.80000,-6.17985,-7.16546
61.90000,-6.19025,-7.16792
62.00000,-6.19998,-7.18822
62.10000,-6.20985,-7.20032
62.20000,-6.21998,-7.08194
62.30000,-6.22959,-7.06414
62.40000,-6.23985,-7.10291
62.50000,-6.24998,-7.10645
62.60000,-6.25985,-7.09659
62.70000,-6.26998,-7.09435
62.80000,-6.27998,-7.11835
62.90000,-6.29012,-7.08762
63.00000,-6.30012,-7.09479
63.10000,-6.31025,-7.11721
63.20000,-6.31998,-7.13743
63.30000,-6.32958,-7.11774
63.40000,-6.34025,-7.14164
63.50000,-6.34998,-7.14259
63.60000,-6.35985,-7.16056
63.70000,-6.36998,-7.17429
63.80000,-6.37972,-7.18843
63.90000,-6.38998,-7.17118
64.00000,-6.40025,-7.15610
64.10001,-6.40998,-7.16444
64.20000,-6.41998,-7.15745
64.30000,-6.42998,-7.16940
64.40000,-6.43998,-7.18785
64.50000,-6.45012,-7.20368
64.60001,-6.45998,-7.22476
64.70000,-6.46998,-7.20785
64.80000,-6.47985,-7.22056
64.90000,-6.49012,-7.23969
65.00000,-6.49985,-7.24512
65.10001,-6.50972,-7.25959
65.20000,-6.52012,-7.27616
65.30000,-6.52985,-7.28370
65.40000,-6.54012,-7.25331
65.50000,-6.54998,-7.23838
65.60001,-6.55972,-7.26559
65.70001,-6.57012,-7.29366
65.80000,-6.58012,-7.32076
65.90000,-6.58998,-7.32281
66.00000,-6.59998,-7.33310
66.10001,-6.60985,-7.34319
66.20001,-6.61998,-7.36771
66.30000,-6.62985,-7.35111
66.40000,-6.63985,-7.33831
66.50000,-6.64985,-7.33351
66.60001,-6.65972,-7.23988
66.70001,-6.67012,-7.13882
66.80000,-6.67985,-7.14845
66.90000,-6.68998,-7.16730
67.00000,-6.70012,-7.18802
67.10001,-6.70972,-7.19831
67.20001,-6.72012,-7.21306
67.30000,-6.72998,-7.22470
67.40000,-6.73972,-7.24231
67.50000,-6.74998,-7.23029
67.60001,-6.75985,-7.24872
67.70001,-6.76985,-7.22464
67.80000,-6.77998,-7.20598
67.90000,-6.78985,-7.20540
68.00000,-6.79998,-7.21240
68.10001,-6.80998,-7.23317
68.20001,-6.82012,-7.13238
68.30000,-6.82998,-7.02672
68.40000,-6.84012,-7.04689
68.50000,-6.85012,-7.05365
68.60001,-6.85985,-7.06412
68.70001,-6.86998,-7.06020
68.80000,-6.87985,-7.05923
68.90000,-6.88958,-7.07424
69.00000,-6.90012,-7.07728
69.10001,-6.90985,-7.04693
69.20001,-6.91985,-6.97944
69.30000,-6.93012,-6.98547
69.40000,-6.93985,-6.99416
69.50000,-6.94998,-6.99353
69.60001,-6.96012,-6.96350
69.70001,-6.96998,-6.95559
69.80000,-6.97998,-6.96663
69.90000,-6.98985,-6.94773
70.00000,-6.99998,-6.75041
70.10001,-7.00985,-6.64442
70.20001,-7.02025,-6.63083
70.30000,-7.02985,-6.62445
70.40000,-7.03972,-6.62337
70.50000,-7.05025,-6.60633
70.60001,-7.05985,-6.62446
70.70001,-7.06985,-6.60718
70.80000,-7.08025,-6.65586
70.90000,-7.08985,-6.64088
71.00000,-7.10012,-6.64885
71.10001,-7.11025,-6.63871
71.20001,-7.11972,-6.64948
71.30000,-7.12998,-6.66197
71.40000,-7.13998,-6.68514
71.50000,-7.14985,-6.70588
71.60001,-7.15985,-6.73266
71.70001,-7.16972,-6.75625
71.80000,-7.17998,-6.77846
71.90000,-7.18985,-6.80077
72.00000,-7.20012,-6.82029
72.10001,-7.20998,-6.82209
72.20001,-7.21972,-6.85441
72.30000,-7.23025,-6.84908
72.40000,-7.23985,-6.85753
72.50000,-7.24998,-6.86959
72.60001,-7.26012,-6.85835
72.70001,-7.26958,-6.79744
72.80000,-7.27998,-6.80853
72.90000,-7.29012,-6.81371
73.00000,-7.29985,-6.80667
73.10001,-7.30985,-6.82503
73.20001,-7.31985,-6.84490
73.30000,-7.32985,-6.86861
73.40000,-7.33998,-6.87317
73.50000,-7.35012,-6.88608
73.60001,-7.35998,-6.91244
73.70001,-7.36998,-6.88817
73.80000,-7.38025,-6.91301
73.90000,-7.38998,-6.92654
74.00000,-7.39998,-6.96331
74.10001,-7.41012,-6.98158
74.20001,-7.41972,-7.01243
74.30000,-7.42998,-7.03772
74.40000,-7.43998,-7.00089
74.50000,-7.44971,-7.01579
74.60001,-7.46012,-7.02740
74.70001,-7.47012,-7.03336
74.80000,-7.47998,-7.00125
74.90000,-7.49012,-7.00024
75.00000,-7.49998,-6.99341
75.10001,-7.51011,-6.99743
75.20001,-7.52012,-7.02198
75.30000,-7.52998,-7.03349
75.40000,-7.53985,-7.05696
75.50000,-7.54985,-7.07312
75.60001,-7.56011,-7.08524
75.70001,-7.56971,-7.09792
75.80000,-7.57998,-7.11859
75.90000,-7.58985,-7.10900
76.00000,-7.59971,-7.11575
76.10001,-7.61025,-7.12556
76.20001,-7.62011,-7.15216
76.30000,-7.62985,-7.17408
76.40000,-7.64011,-7.18698
76.50000,-7.64971,-7.18723
76.60001,-7.65998,-7.19232
76.70001,-7.66998,-7.20705
76.80000,-7.67998,-7.21417
76.90000,-7.68985,-7.22132
77.00000,-7.69971,-7.24243
77.10001,-7.70985,-7.23238
77.20001,-7.71985,-7.25268
77.30000,-7.72998,-7.26790
77.40000,-7.74011,-7.27883
77.50000,-7.74985,-7.28909
77.60001,-7.76025,-7.30390
77.70001,-7.77011,-7.32089
77.80000,-7.77985,-7.31669
77.90000,-7.79011,-7.33320
78.00000,-7.79998,-7.34819
78.10001,-7.80998,-7.35228
78.20001,-7.81998,-7.35976
78.30000,-7.82971,-7.35825
78.40000,-7.83985,-7.38057
78.50000,-7.84998,-7.39237
78.60001,-7.85998,-7.38940
78.70001,-7.87011,-7.36745
78.80000,-7.87985,-7.36403
78.90000,-7.89011,-7.32906
79.00000,-7.89998,-7.34028
79.10001,-7.91011,-7.35079
79.20001,-7.91998,-7.37554
79.30000,-7.92971,-7.38363
79.40000,-7.94025,-7.37654
79.50000,-7.94985,-7.36837
79.60001,-7.95985,-7.37824
79.70001,-7.97011,-7.40992
79.80000,-7.97971,-7.43463
79.90000,-7.99011,-7.44317
80.00000,-8.00011,-7.45695
80.10001,-8.00985,-7.45794
80.20001,-8.01998,-7.47590
80.30000,-8.02998,-7.48720
80.40000,-8.03998,-7.50469
80.50001,-8.05011,-7.52561
80.60001,-8.06011,-7.52881
80.70001,-8.06998,-7.54729
80.80000,-8.07985,-7.56838
80.90000,-8.09011,-7.59140
81.00001,-8.09985,-7.61323
81.10001,-8.10985,-7.61251
81.20001,-8.12011,-7.58549
81.30000,-8.12985,-7.61397
81.40000,-8.13998,-7.63055
81.50001,-8.15011,-7.62680
81.60001,-8.15971,-7.65330
81.70001,-8.17025,-7.67824
81.80000,-8.17998,-7.69600
81.90000,-8.18998,-7.71082
82.00001,-8.19998,-7.72919
82.10001,-8.20985,-7.72612
82.20001,-8.21985,-7.75337
82.30000,-8.22985,-7.75489
82.40000,-8.23998,-7.77559
82.50001,-8.24985,-7.78825
82.60001,-8.25985,-7.74795
82.70001,-8.27011,-7.78237
82.80000,-8.27985,-7.79960
82.90000,-8.28998,-7.82351
83.00001,-8.30011,-7.22934
83.10001,-8.30971,-7.26619
83.20001,-8.31998,-7.29664
83.30000,-8.32998,-7.29728
83.40000,-8.33985,-7.30935
83.50001,-8.34998,-7.31220
83.60001,-8.35985,-7.32577
83.70001,-8.36985,-7.34152
83.80000,-8.38011,-7.34849
83.90000,-8.38998,-7.36526
84.00001,-8.40011,-7.37930
84.10001,-8.41011,-7.37763
84.20001,-8.42011,-7.39163
84.30000,-8.43011,-7.38537
84.40000,-8.44011,-7.40947
84.50001,-8.45025,-7.40686
84.60001,-8.45998,-7.42429
84.70001,-8.47011,-7.43852
84.80000,-8.47998,-7.45177
84.90000,-8.48958,-7.46240
85.00001,-8.50011,-7.43191
85.10001,-8.50971,-7.44822
85.20001,-8.51985,-7.38494
85.30000,-8.53025,-7.42772
85.40000,-8.53985,-7.44702
85.50001,-8.54998,-7.47039
85.60001,-8.56011,-7.50523
85.70001,-8.57011,-7.52557
85.80000,-8.57998,-7.55765
85.90000,-8.58985,-7.57368
86.00001,-8.59998,-7.60085
86.10001,-8.60985,-7.61862
86.20001,-8.62011,-7.63831
86.30000,-8.62985,-7.65153
86.40000,-8.63958,-7.67937
86.50001,-8.65011,-7.65603
86.60001,-8.65985,-7.58243
86.70001,-8.66985,-7.51313
86.80000,-8.68011,-7.51618
86.90000,-8.68985,-7.51313
87.00001,-8.70011,-7.53072
87.10001,-8.71025,-7.54424
87.20001,-8.71985,-7.53211
87.30000,-8.72998,-7.48217
87.40000,-8.73998,-7.49904
87.50001,-8.74971,-7.50877
87.60001,-8.75985,-7.52693
87.70001,-8.76971,-7.55292
87.80000,-8.77985,-7.58047
87.90000,-8.78985,-7.59431
88.00001,-8.80011,-7.61927
88.10001,-8.80998,-7.63516
88.20001,-8.81985,-7.65714
88.30000,-8.83025,-7.67259
88.40000,-8.83985,-7.68923
88.50001,-8.84998,-7.70451
88.60001,-8.86011,-7.72362
88.70001,-8.86971,-7.72798
88.80000,-8.88011,-7.71227
88.90000,-8.88998,-7.66817
89.00001,-8.89971,-7.69625
89.10001,-8.90984,-7.71276
89.20001,-8.91998,-7.74362
89.30000,-8.92998,-7.74749
89.40000,-8.94011,-7.78207
89.50001,-8.94998,-7.79023
89.60001,-8.95998,-7.81883
89.70001,-8.96985,-7.84356
89.80000,-8.98011,-7.86799
89.90000,-8.98984,-7.87888
90.00001,-8.99998,-7.90128
90.10001,-9.01025,-7.91523
90.20001,-9.01985,-7.90933
90.30000,-9.02998,-7.89991
90.40000,-9.03998,-7.92064
90.50001,-9.04971,-7.95649
90.60001,-9.06011,-7.91789
90.70001,-9.07011,-7.95483
90.80000,-9.07998,-7.97792
90.90000,-9.09024,-7.97769
91.00001,-9.09984,-7.99895
91.10001,-9.10998,-8.02363
91.20001,-9.12011,-8.01770
91.30000,-9.13011,-8.00617
91.40000,-9.13998,-8.03359
91.50001,-9.14998,-8.05542
91.60001,-9.16011,-8.04477
91.70001,-9.16971,-8.03993
91.80000,-9.17998,-8.01990
91.90000,-9.18984,-8.03028
92.00001,-9.19971,-8.05255
92.10001,-9.21038,-8.05440
92.20001,-9.21998,-8.08429
92.30000,-9.22998,-8.10542
92.40000,-9.24011,-8.10019
92.50001,-9.24984,-8.10411
92.60001,-9.25998,-8.12444
92.70001,-9.26998,-8.13691
92.80000,-9.27984,-8.13620
92.90000,-9.28984,-8.08452
93.00001,-9.29984,-8.09246
93.10001,-9.30984,-8.06617
93.20001,-9.31971,-8.09882
93.30000,-9.32998,-8.10595
93.40000,-9.33998,-8.11576
93.50001,-9.34984,-8.11854
93.60001,-9.36011,-8.11227
93.70001,-9.37011,-8.13112
93.80000,-9.37984,-8.15287
93.90000,-9.39024,-8.15654
94.00001,-9.39998,-8.19117
94.10001,-9.40984,-8.20188
94.20001,-9.42011,-8.22577
94.30000,-9.42971,-8.09529
94.40000,-9.43984,-8.13788
94.50001,-9.45011,-8.15393
94.60001,-9.45998,-8.18123
94.70001,-9.46998,-8.11835
94.80000,-9.47984,-8.13848
94.90000,-9.48998,-8.17157
95.00001,-9.49998,-8.17978
95.10001,-9.51011,-8.17830
95.20001,-9.51998,-8.17144
95.30000,-9.52984,-8.18731
95.40000,-9.54011,-8.06052
95.50001,-9.54984,-8.08798
95.60001,-9.55971,-8.08753
95.70001,-9.56998,-8.11323
95.80000,-9.57971,-8.14907
95.90000,-9.59011,-8.16692
96.00001,-9.60024,-8.19804
96.10001,-9.60998,-8.21766
96.20001,-9.61998,-8.24581
96.30000,-9.62998,-8.26749
96.40000,-9.63998,-8.20557
96.50001,-9.64998,-8.23766
96.60001,-9.65998,-8.25641
96.70001,-9.66998,-8.28519
96.80000,-9.67984,-8.27368
96.90000,-9.69011,-8.30209
97.00001,-9.69984,-8.31872
97.10001,-9.70984,-8.33402
97.20001,-9.72011,-8.33457
97.30000,-9.72984,-8.34196
97.40000,-9.74011,-8.38011
97.50001,-9.75011,-8.38276
97.60001,-9.75971,-8.40660
97.70001,-9.77024,-8.34908
97.80000,-9.77998,-8.35675
97.90000,-9.78984,-8.38580
98.00001,-9.79998,-8.38929
98.10001,-9.80984,-8.40513
98.20001,-9.81984,-8.43600
98.30000,-9.82984,-8.44768
98.40000,-9.83984,-8.45111
98.50001,-9.84971,-8.46658
98.60001,-9.85971,-8.48290
98.70001,-9.87011,-8.50127
98.80000,-9.87984,-8.51860
98.90000,-9.88998,-8.30876
99.00001,-9.90011,-8.25476
99.10001,-9.90971,-8.26116
99.20001,-9.92011,-8.29972
99.30000,-9.92998,-8.34468
99.40000,-9.93971,-8.37559
99.50001,-9.94998,-8.40489
99.60001,-9.95971,-8.42977
99.70001,-9.96984,-8.33220
99.80000,-9.97998,-8.32213
99.90000,-9.98998,-8.36325
100.00001,-9.99998,-8.40041
100.10001,-10.01011,-8.42236
100.20001,-10.02011,-8.46524
100.30000,-10.03011,-8.48560
100.40000,-10.04011,-8.51663
100.50001,-10.05011,-8.53419
100.60001,-10.05984,-8.55977
100.70001,-10.07011,-8.58551
100.80000,-10.07998,-8.60622
100.90000,-10.08971,-8.63322
101.00001,-10.10011,-8.60103
101.10001,-10.10984,-8.63048
101.20001,-10.11984,-8.65975
101.30000,-10.13024,-8.67688
101.40000,-10.13984,-8.68624
101.50001,-10.14998,-8.71357
101.60001,-10.16024,-8.74014
101.70001,-10.16998,-8.75460
101.80000,-10.17998,-8.79141
101.90000,-10.18998,-8.81380
102.00001,-10.20011,-8.83988
102.10001,-10.20984,-8.85310
102.20001,-10.22011,-8.86776
102.30000,-10.22984,-8.90068
102.40000,-10.23971,-8.93817
102.50001,-10.25011,-8.95623
102.60001,-10.25984,-8.98194
102.70001,-10.26984,-9.01728
102.80000,-10.28024,-8.96998
102.90000,-10.28971,-8.99139
103.00001,-10.29984,-9.01130
103.10001,-10.31011,-9.02080
103.20001,-10.31984,-9.05419
103.30000,-10.32997,-9.07602
103.40000,-10.33997,-9.08728
103.50001,-10.34984,-9.09396
103.60001,-10.35984,-9.11219
103.70001,-10.36984,-9.11940
103.80000,-10.37984,-9.15573
103.90000,-10.38971,-9.18342
104.00001,-10.40011,-9.14278
104.10001,-10.40997,-9.07190
104.20001,-10.41971,-9.12585
104.30000,-10.43037,-9.15942
104.40000,-10.43984,-9.18589
104.50001,-10.44997,-9.20893
104.60001,-10.46011,-9.21179
104.70001,-10.46971,-9.23621
104.80000,-10.47997,-9.24901
104.90000,-10.49011,-9.23150
105.00001,-10.49984,-9.24656
105.10001,-10.50984,-9.12849
105.20001,-10.51984,-9.14301
105.30000,-10.52997,-9.16034
105.40000,-10.54011,-9.17154
105.50001,-10.54997,-9.17646
105.60001,-10.55997,-9.20444
105.70001,-10.56997,-9.22712
105.80000,-10.58011,-9.25250
105.90000,-10.58984,-9.26544
106.00001,-10.59997,-9.28704
106.10001,-10.61011,-9.30448
106.20001,-10.61984,-9.31870
106.30000,-10.62997,-9.33173
106.40000,-10.63997,-9.35140
106.50001,-10.64971,-9.37641
106.60001,-10.66011,-9.38532
106.70001,-10.67011,-9.40431
106.80000,-10.67984,-9.37919
106.90000,-10.69024,-9.37804
107.00001,-10.69997,-8.99445
107.10001,-10.71011,-9.01077
107.20001,-10.72011,-9.06027
107.30000,-10.73011,-9.09068
107.40000,-10.73984,-9.05847
107.50001,-10.74984,-9.07097
107.60001,-10.75997,-9.03152
107.70001,-10.76971,-9.03133
107.80000,-10.77997,-9.05683
107.90000,-10.78997,-9.07796
108.00001,-10.79957,-9.09148
108.10001,-10.81024,-9.13263
108.20001,-10.81997,-9.18751
108.30000,-10.82997,-9.23691
108.40000,-10.84011,-9.28620
108.50001,-10.84984,-9.30443
108.60001,-10.85997,-9.34831
108.70001,-10.86997,-9.38799
108.80000,-10.87984,-9.42913
108.90000,-10.88984,-9.44904
109.00001,-10.89971,-9.46019
109.10001,-10.90984,-9.48342
109.20001,-10.91984,-9.53316
109.30000,-10.92997,-9.51940
109.40000,-10.94011,-9.53917
109.50001,-10.94971,-9.55451
109.60001,-10.95997,-9.58316
109.70001,-10.96984,-9.60129
109.80000,-10.97971,-9.62752
109.90000,-10.99037,-9.59572
110.00001,-10.99997,-9.59525
110.10001,-11.00997,-9.60051
110.20001,-11.02011,-9.61252
110.30000,-11.02971,-9.63741
110.40000,-11.03997,-9.62399
110.50001,-11.05011,-9.50190
110.60001,-11.05997,-9.50052
110.70001,-11.06984,-9.51029
110.80000,-11.07997,-9.45263
110.90000,-11.08997,-9.47636
111.00001,-11.09997,-9.50324
111.10001,-11.11011,-9.51527
111.20001,-11.11997,-9.53725
111.30000,-11.12984,-9.45469
111.40000,-11.14024,-9.45694
111.50001,-11.14984,-9.46134
111.60001,-11.15984,-9.47115
111.70001,-11.16997,-9.41526
111.80000,-11.17957,-9.37987
111.90000,-11.18997,-9.32928
112.00001,-11.20024,-9.28895
112.10001,-11.20984,-9.06381
112.20001,-11.21997,-9.03221
112.30000,-11.22997,-9.03366
112.40000,-11.23997,-9.01664
112.50001,-11.25011,-9.00216
112.60001,-11.25997,-9.00435
112.70001,-11.26984,-8.97729
112.80000,-11.27997,-8.99438
112.90001,-11.29011,-9.03058
113.00001,-11.29984,-9.05597
113.10001,-11.30971,-9.00038
113.20001,-11.32011,-8.97029
113.30000,-11.32984,-8.98944
113.40001,-11.34011,-9.02329
113.50001,-11.35024,-9.04982
113.60001,-11.35971,-8.99235
113.70001,-11.37011,-8.97493
113.80000,-11.38011,-9.00401
113.90001,-11.38984,-9.02375
114.00001,-11.39984,-9.04811
114.10001,-11.40971,-9.02613
114.20001,-11.41984,-9.04815
114.30000,-11.42984,-8.98930
114.40001,-11.43984,-8.99305
114.50001,-11.44984,-9.02234
114.60001,-11.45971,-9.04347
114.70001,-11.47024,-8.99515
114.80000,-11.47984,-9.04291
114.90001,-11.48997,-9.07191
115.00001,-11.50011,-9.09900
115.10001,-11.50971,-9.07913
115.20001,-11.52011,-9.12391
115.30000,-11.53011,-9.11224
115.40001,-11.53971,-9.12625
115.50001,-11.54997,-9.15239
115.60001,-11.55984,-9.14787
115.70001,-11.56984,-9.07782
115.80000,-11.58010,-8.72669
115.90001,-11.58997,-8.75140
116.00001,-11.60011,-8.78377
116.10001,-11.61010,-8.73855
116.20001,-11.61997,-8.75588
116.30000,-11.62997,-8.74942
116.40001,-11.63997,-8.75977
116.50001,-11.65011,-8.78837
116.60001,-11.65984,-8.81552
116.70001,-11.67011,-8.78558
116.80000,-11.67997,-8.82614
116.90001,-11.68970,-8.81451
117.00001,-11.70010,-8.64099
117.10001,-11.70984,-8.60419
117.20001,-11.71984,-8.63790
117.30000,-11.73010,-8.63571
117.40001,-11.73984,-8.64164
117.50001,-11.74997,-8.47936
117.60001,-11.76010,-8.51077
117.70001,-11.77010,-8.52639
117.80000,-11.77997,-8.56251
117.90001,-11.78997,-8.56050
118.00001,-11.80010,-8.56561
118.10001,-11.80984,-8.57909
118.20001,-11.82010,-8.58594
118.30000,-11.82984,-8.60520
118.40001,-11.83970,-8.62635
118.50001,-11.85010,-8.64218
118.60001,-11.85984,-8.64692
118.70001,-11.86984,-8.67748
118.80000,-11.88010,-8.69982
118.90001,-11.88984,-8.71717
119.00001,-11.89997,-8.67938
119.10001,-11.91024,-8.66081
119.20001,-11.91997,-8.67705
119.30000,-11.92997,-8.68292
119.40001,-11.93997,-8.70097
119.50001,-11.94970,-8.72192
119.60001,-11.95984,-8.74779
119.70001,-11.96984,-8.76427
119.80000,-11.97984,-8.75166
119.90001,-11.98970,-8.74947
120.00001,-12.00010,-8.78711
120.10001,-12.00997,-8.80660
120.20001,-12.01984,-8.70141
120.30000,-12.03024,-8.71139
120.40001,-12.03997,-8.68396
120.50001,-12.04984,-8.64542
120.60001,-12.06010,-8.67500
120.70001,-12.06957,-8.70599
120.80000,-12.07997,-8.75480
120.90001,-12.09010,-8.78326
121.00001,-12.09984,-8.82331
121.10001,-12.10970,-8.84621
121.20001,-12.11984,-8.85321
121.30000,-12.12997,-8.89725
121.40001,-12.13997,-8.93914
121.50001,-12.15024,-8.98210
121.60001,-12.16010,-9.00872
121.70001,-12.16997,-9.00304
121.80000,-12.18024,-9.02637
121.90001,-12.18997,-9.04845
122.00001,-12.19997,-9.06875
122.10001,-12.21010,-9.10838
122.20001,-12.21970,-9.16258
122.30000,-12.22984,-9.21039
122.40001,-12.23997,-9.26493
122.50001,-12.24984,-9.31767
122.60001,-12.26010,-9.36070
122.70001,-12.26997,-9.34992
122.80000,-12.27984,-9.39089
122.90001,-12.28997,-9.42555
123.00001,-12.29997,-9.47754
123.10001,-12.30997,-9.52150
123.20001,-12.32010,-9.53817
123.30000,-12.33010,-9.57283
123.40001,-12.33997,-9.58735
123.50001,-12.34984,-9.58034
123.60001,-12.36010,-9.58500
123.70001,-12.36970,-9.62714
123.80000,-12.37997,-9.66922
123.90001,-12.38997,-9.69952
124.00001,-12.39984,-9.68708
124.10001,-12.41024,-9.70757
124.20001,-12.41997,-9.73584
124.30000,-12.42997,-9.76730
124.40001,-12.44010,-9.81039
124.50001,-12.44984,-9.83819
124.60001,-12.45997,-9.88153
124.70001,-12.46997,-9.91376
124.80000,-12.47997,-9.96515
124.90001,-12.48997,-10.00186
125.00001,-12.49984,-10.03258
125.10001,-12.50997,-9.94254
125.20001,-12.51984,-9.98288
125.30000,-12.52984,-10.01999
125.40001,-12.53997,-10.06288
125.50001,-12.54984,-10.10317
125.60001,-12.55997,-10.13285
125.70001,-12.57010,-10.15560
125.80000,-12.57984,-10.17833
125.90001,-12.59024,-10.20954
126.00001,-12.59997,-10.22657
126.10001,-12.60984,-10.23643
126.20001,-12.62010,-10.25125
126.30000,-12.62970,-10.27846
126.40001,-12.63984,-10.31685
126.50001,-12.64997,-10.27313
126.60001,-12.65997,-10.31729
126.70001,-12.66997,-10.28883
126.80000,-12.67997,-10.29335
126.90001,-12.69010,-10.20738
127.00001,-12.70010,-10.23269
127.10001,-12.71024,-10.25832
127.20001,-12.72010,-10.30180
127.30000,-12.72970,-10.33436
127.40001,-12.74024,-10.38154
127.50001,-12.74997,-10.41630
127.60001,-12.75984,-10.42670
127.70001,-12.77010,-10.46678
127.80000,-12.77970,-10.49716
127.90001,-12.78997,-10.52517
128.00000,-12.80010,-10.55396
128.10001,-12.80984,-10.56712
128.20002,-12.82010,-10.58063
128.30000,-12.83010,-10.59995
128.40001,-12.84010,-10.63239
128.50000,-12.85010,-10.64642
128.60001,-12.86010,-10.67328
128.70002,-12.86997,-10.68524
128.80000,-12.87984,-10.65599
128.90001,-12.89010,-10.71181
129.00000,-12.89984,-10.73996
129.10001,-12.90984,-10.76381
129.20002,-12.92024,-10.81999
129.30000,-12.92984,-10.85192
129.40001,-12.94010,-10.86957
129.50000,-12.95010,-10.90899
129.60001,-12.95970,-10.88656
129.70002,-12.97010,-10.90462
129.80000,-12.98010,-10.92123
129.90001,-12.98997,-10.96713
130.00000,-12.99997,-11.01154
130.10001,-13.00984,-11.04690
130.20002,-13.01997,-11.09164
130.30000,-13.02984,-11.13334
130.40001,-13.03983,-11.16890
130.50000,-13.04970,-11.18575
130.60001,-13.05970,-11.22894
130.70002,-13.07024,-11.26507
130.80000,-13.07984,-11.29593
130.90001,-13.08997,-11.33417
131.00000,-13.10010,-11.37627
131.10000,-13.10983,-11.40202
131.20002,-13.11997,-11.40270
131.30000,-13.13010,-11.41030
131.40002,-13.13983,-11.46448
131.50000,-13.14997,-11.49980
131.60000,-13.15997,-11.52707
131.70002,-13.16983,-11.55967
131.80000,-13.17997,-11.61391
131.90002,-13.18997,-11.62005
132.00000,-13.20010,-11.65076
132.10000,-13.20997,-11.69123
132.20002,-13.22010,-11.75389
132.30000,-13.23010,-11.70743
132.40002,-13.23997,-11.75350
132.50000,-13.25023,-11.78856
132.60000,-13.25997,-11.81226
132.70002,-13.26997,-11.85836
132.80000,-13.28010,-11.89492
132.90002,-13.28970,-11.88095
133.00000,-13.30010,-11.92627
133.10000,-13.30983,-11.95447
133.20002,-13.31983,-11.99118
133.30000,-13.33023,-12.01733
133.40002,-13.33997,-12.00417
133.50000,-13.35010,-12.02175
133.60000,-13.36010,-11.85194
133.70002,-13.36997,-11.69266
133.80000,-13.37997,-11.77003
133.90002,-13.38997,-11.83236
134.00000,-13.39997,-11.62507
134.10000,-13.40983,-11.68105
134.20002,-13.42023,-11.73621
134.30000,-13.42997,-11.82530
134.40002,-13.43970,-11.85382
134.50000,-13.45023,-11.93780
134.60000,-13.45997,-11.96124
134.70002,-13.46997,-12.02557
134.80000,-13.48010,-12.09245
134.90002,-13.48997,-12.07267
135.00000,-13.49997,-12.12704
135.10000,-13.51010,-12.16023
135.20002,-13.51997,-12.22891
135.30000,-13.53010,-12.27331
135.40002,-13.53997,-12.28049
135.50000,-13.54997,-12.32252
135.60000,-13.55997,-12.35912
135.70002,-13.56970,-12.28350
135.80000,-13.57997,-12.26337
135.90002,-13.58983,-12.32259
136.00000,-13.59997,-12.37628
136.10000,-13.60983,-12.43400
136.20002,-13.61970,-12.47890
136.30000,-13.63023,-12.51307
136.40002,-13.63997,-12.56466
136.50000,-13.65010,-12.59207
136.60000,-13.66010,-12.62118
136.70002,-13.66970,-12.67299
136.80000,-13.68010,-12.21062
136.90002,-13.69010,-12.18048
137.00000,-13.69983,-12.26670
137.10000,-13.70983,-12.31620
137.20002,-13.71983,-12.38100
137.30000,-13.72997,-12.45421
137.40002,-13.74010,-12.52313
137.50000,-13.75010,-12.57005
137.60000,-13.75997,-12.59348
137.70002,-13.77010,-12.62297
137.80000,-13.78023,-12.65593
137.90002,-13.78997,-12.66368
138.00000,-13.79983,-12.72381
138.10000,-13.81010,-12.70348
138.20002,-13.81983,-12.73651
138.30000,-13.82997,-12.80837
138.40002,-13.83997,-12.84555
138.50000,-13.84970,-12.88476
138.60000,-13.86023,-12.91960
138.70002,-13.87010,-12.97896
138.80000,-13.87997,-13.01769
138.90002,-13.89023,-13.04802
139.00000,-13.89997,-13.08555
139.10000,-13.90997,-13.09011
139.20002,-13.92010,-13.10647
139.30000,-13.93023,-13.14307
139.40002,-13.93997,-13.14688
139.50000,-13.94983,-13.16121
139.60000,-13.96010,-13.20031
139.70002,-13.96983,-13.10988
139.80000,-13.98010,-13.17068
139.90002,-13.98997,-13.22055
140.00000,-13.99970,-13.28085
140.10000,-14.01037,-13.31203
140.20002,-14.02010,-13.37097
140.30000,-14.02997,-13.35006
140.40002,-14.04010,-13.39532
140.50000,-14.04983,-13.36686
140.60000,-14.06010,-13.37896
140.70002,-14.07010,-13.39515
140.80000,-14.07997,-13.37235
140.90002,-14.08997,-13.32264
141.00000,-14.09983,-13.29535
141.10000,-14.10997,-13.27257
141.20002,-14.11983,-13.29854
141.30000,-14.12997,-13.33351
141.40002,-14.14023,-13.29828
141.50000,-14.14983,-13.24676
141.60000,-14.16023,-13.21316
141.70002,-14.17010,-13.28470
141.80000,-14.17983,-13.33827
141.90002,-14.19023,-13.38848
142.00000,-14.19997,-13.45222
142.10000,-14.20983,-13.49346
142.20002,-14.22010,-13.54149
142.30000,-14.22970,-13.59287
142.40002,-14.23997,-13.65142
142.50000,-14.25010,-13.68754
142.60000,-14.25997,-13.71693
142.70002,-14.26996,-13.70641
142.80000,-14.27997,-13.70270
142.90002,-14.28996,-13.77106
143.00000,-14.29997,-13.83887
143.10000,-14.31010,-13.89770
143.20002,-14.31983,-13.95310
143.30000,-14.32970,-13.96011
143.40002,-14.34023,-14.03257
143.50000,-14.34997,-14.09368
143.60000,-14.35983,-14.09684
143.70002,-14.36996,-14.16569
143.80000,-14.37970,-14.23439
143.90002,-14.38996,-14.30246
144.00000,-14.40023,-14.37348
144.10000,-14.40996,-14.41048
144.20002,-14.41996,-14.43940
144.30000,-14.43010,-14.22185
144.40002,-14.44010,-14.31494
144.50000,-14.45023,-14.35304
144.60000,-14.46010,-14.29905
144.70002,-14.46996,-14.29325
144.80000,-14.47996,-14.25526
144.90002,-14.49010,-14.29155
145.00000,-14.49983,-14.36523
145.10000,-14.50983,-14.43218
145.20002,-14.52010,-14.52554
145.30000,-14.52983,-14.58738
145.40002,-14.54010,-14.63424
145.50000,-14.55023,-14.68288
145.60000,-14.55983,-14.72877
145.70002,-14.57036,-14.81375
145.80000,-14.58010,-14.86511
145.90002,-14.58983,-14.90754
146.00000,-14.59996,-14.98342
146.10000,-14.60983,-15.02962
146.20002,-14.61996,-15.10931
146.30000,-14.62996,-15.10574
146.40002,-14.63983,-15.18213
146.50000,-14.64983,-15.23295
146.60000,-14.65970,-14.88838
146.70002,-14.67010,-14.40366
146.80000,-14.67983,-14.57545
146.90002,-14.69010,-14.68237
147.00000,-14.70010,-14.82940
147.10000,-14.70983,-14.93700
147.20002,-14.72010,-15.04729
147.30000,-14.73010,-15.14591
147.40002,-14.73983,-15.21383
147.50000,-14.75010,-15.26917
147.60000,-14.75983,-15.26093
147.70002,-14.76970,-15.29724
147.80000,-14.77996,-15.34155
147.90002,-14.78996,-15.39452
148.00000,-14.79996,-15.41544
148.10000,-14.81010,-15.38495
148.20002,-14.82010,-15.47144
148.30000,-14.83010,-15.54206
148.40002,-14.84010,-15.58336
148.50000,-14.85010,-15.68248
148.60000,-14.85996,-15.72540
148.70002,-14.87010,-15.77847
148.80000,-14.87996,-15.86220
148.90002,-14.88970,-15.93092
149.00000,-14.90023,-16.00999
149.10000,-14.90983,-15.99426
149.20002,-14.91996,-16.02176
149.30000,-14.93023,-15.88711
149.40002,-14.93983,-15.89093
149.50000,-14.94996,-15.93415
149.60000,-14.96010,-15.99302
149.70002,-14.96996,-16.07323
149.80000,-14.98010,-16.12773
149.90002,-14.99010,-15.76033
150.00000,-15.00010,-15.61307
150.10000,-15.00996,-15.63184
150.20002,-15.02010,-15.71220
150.30000,-15.02983,-15.73986
150.40002,-15.03970,-15.79116
150.50000,-15.05023,-15.85473
150.60000,-15.05996,-15.88663
150.70002,-15.06996,-15.96701
150.80000,-15.08010,-16.04871
150.90002,-15.08983,-16.03234
151.00000,-15.09996,-16.03777
151.10000,-15.11010,-15.97540
151.20002,-15.11983,-15.75167
151.30000,-15.12996,-15.81920
151.40002,-15.14010,-15.90711
151.50000,-15.14996,-15.96686
151.60000,-15.15996,-16.01502
151.70002,-15.16983,-16.07533
151.80000,-15.17983,-16.14567
151.90002,-15.18983,-16.20909
152.00000,-15.20010,-16.23679
152.10000,-15.20996,-16.29369
152.20002,-15.21983,-16.35691
152.30000,-15.23036,-16.42988
152.40002,-15.23996,-16.49087
152.50000,-15.24996,-16.54906
152.60000,-15.26023,-16.60523
152.70002,-15.26956,-16.62371
152.80000,-15.27996,-16.61700
152.90002,-15.29010,-16.65919
153.00000,-15.29983,-16.69146
153.10000,-15.30983,-16.70326
153.20002,-15.31983,-16.79395
153.30000,-15.32996,-16.85009
153.40002,-15.34023,-16.87200
153.50000,-15.35010,-16.87933
153.60000,-15.35996,-16.90702
153.70002,-15.36996,-16.68498
153.80000,-15.38023,-16.69277
153.90002,-15.39010,-16.75686
154.00000,-15.39996,-16.73132
154.10000,-15.41010,-16.78062
154.20002,-15.41983,-16.83346
154.30000,-15.42996,-16.89058
154.40002,-15.43996,-16.94608
154.50000,-15.44970,-17.00327
154.60000,-15.46023,-17.07427
154.70002,-15.47010,-17.15965
154.80000,-15.47996,-17.20949
154.90002,-15.49023,-17.25517
155.00000,-15.49996,-17.24716
155.10000,-15.51010,-17.30318
155.20002,-15.52010,-17.36681
155.30000,-15.53010,-17.42441
155.40002,-15.53996,-17.34912
155.50000,-15.54996,-17.18966
155.60000,-15.56010,-17.09810
155.70002,-15.56983,-16.85544
155.80000,-15.58010,-16.91554
155.90002,-15.58996,-16.94037
156.00000,-15.59970,-16.98525
156.10000,-15.61023,-17.01838
156.20002,-15.61996,-17.06920
156.30000,-15.62996,-17.12146
156.40002,-15.64023,-17.16005
156.50000,-15.64983,-17.07213
156.60000,-15.65996,-17.10938
156.70002,-15.67009,-17.06089
156.80000,-15.67983,-17.08381
156.90002,-15.68983,-17.10472
157.00000,-15.69983,-17.12376
157.10000,-15.70983,-17.08980
157.20002,-15.71983,-17.11161
157.30000,-15.72996,-17.17592
157.40002,-15.74009,-17.23491
157.50000,-15.74983,-17.26941
157.60000,-15.76010,-17.32261
157.70002,-15.77009,-17.27504
157.80000,-15.77983,-17.28905
157.90002,-15.79036,-17.23025
158.00000,-15.79996,-17.23125
158.10000,-15.80983,-17.26398
158.20002,-15.82023,-16.25962
158.30000,-15.82970,-16.10025
158.40002,-15.83983,-16.07952
158.50000,-15.85010,-16.03626
158.60000,-15.85983,-16.03402
158.70002,-15.86996,-16.02785
158.80000,-15.87996,-16.06804
158.90002,-15.89010,-15.85767
159.00000,-15.90009,-15.81203
159.10000,-15.91023,-15.73779
159.20002,-15.91996,-15.57613
159.30000,-15.92970,-15.57466
159.40002,-15.94023,-15.59003
159.50000,-15.94983,-15.61266
159.60000,-15.95983,-15.59635
159.70002,-15.97009,-15.63577
159.80000,-15.97969,-15.52563
159.90002,-15.99010,-15.54220
160.00000,-16.00009,-15.53048
160.10000,-16.00983,-15.33930
160.20002,-16.02009,-15.18816
160.30000,-16.03010,-15.19022
160.32200,-16.03223,-15.20007
