Time,Extension,Load
(sec),(mm),(N)
0.00000,-0.00027,-0.00655
0.10000,-0.00267,-0.02030
0.20000,-0.01307,-0.02163
0.30000,-0.02613,-0.02526
0.40000,-0.03827,-0.02419
0.50000,-0.04933,-0.02666
0.60000,-0.05933,-0.01779
0.70000,-0.07000,-0.02769
0.80000,-0.08013,-0.03104
0.90000,-0.09000,-0.02701
1.00000,-0.10027,-0.02948
1.10000,-0.11013,-0.01870
1.20000,-0.12027,-0.02628
1.30000,-0.13040,-0.02414
1.40000,-0.14067,-0.03412
1.50000,-0.15053,-0.03499
1.60000,-0.16053,-0.02484
1.70000,-0.17053,-0.03466
1.80000,-0.18013,-0.03567
1.90000,-0.19027,-0.03459
2.00000,-0.20040,-0.03179
2.10000,-0.21013,-0.03144
2.20000,-0.22053,-0.03333
2.30000,-0.23027,-0.03057
2.40000,-0.24027,-0.04370
2.50000,-0.25053,-0.04147
2.60000,-0.26027,-0.03310
2.70000,-0.27040,-0.03572
2.80000,-0.28067,-0.03805
2.90000,-0.29053,-0.04425
3.00000,-0.30040,-0.04590
3.10000,-0.31040,-0.03393
3.20000,-0.32040,-0.04240
3.30000,-0.33027,-0.04241
3.40000,-0.34040,-0.04579
3.50000,-0.35040,-0.05274
3.60000,-0.36013,-0.03438
3.70000,-0.37067,-0.04872
3.80000,-0.38027,-0.04150
3.90000,-0.39013,-0.05280
4.00000,-0.40067,-0.05249
4.10000,-0.41040,-0.04785
4.20000,-0.42040,-0.05370
4.30000,-0.43053,-0.05764
4.40000,-0.44027,-0.04996
4.50000,-0.45040,-0.04881
4.60000,-0.46053,-0.05551
4.70000,-0.47027,-0.05048
4.80000,-0.48027,-0.05597
4.90000,-0.49013,-0.05737
5.00000,-0.50027,-0.06391
5.10000,-0.51000,-0.05144
5.20000,-0.52040,-0.06307
5.30000,-0.53040,-0.05616
5.40000,-0.54000,-0.06624
5.50000,-0.55067,-0.06795
5.60000,-0.56027,-0.06068
5.70000,-0.57040,-0.06652
5.80000,-0.58067,-0.06859
5.90000,-0.59013,-0.06483
6.00000,-0.60027,-0.07177
6.10000,-0.61040,-0.06522
6.20000,-0.62013,-0.07733
6.30000,-0.63027,-0.07318
6.40000,-0.64040,-0.08072
6.50000,-0.65040,-0.07254
6.60000,-0.66040,-0.07043
6.70000,-0.67053,-0.08049
6.80000,-0.68053,-0.08113
6.90000,-0.69040,-0.07355
7.00000,-0.70053,-0.07805
7.10000,-0.71040,-0.07228
7.20000,-0.72026,-0.07844
7.30000,-0.73053,-0.07990
7.40000,-0.74026,-0.07819
7.50000,-0.75026,-0.08032
7.60000,-0.76040,-0.07519
7.70000,-0.77013,-0.08438
7.80000,-0.78053,-0.08407
7.90000,-0.79040,-0.08871
8.00000,-0.80040,-0.08705
8.10000,-0.81053,-0.08164
8.20000,-0.82040,-0.09021
8.30000,-0.83053,-0.09561
8.40000,-0.84040,-0.09325
8.50000,-0.85040,-0.09444
8.60000,-0.86013,-0.08905
8.70000,-0.87013,-0.10070
8.80000,-0.88040,-0.10172
8.90000,-0.89013,-0.10026
9.00000,-0.90040,-0.10452
9.10000,-0.91040,-0.09850
9.20000,-0.92013,-0.10836
9.30000,-0.93066,-0.11047
9.40000,-0.94040,-0.10748
9.50000,-0.95026,-0.11506
9.60000,-0.96053,-0.10656
9.70000,-0.97040,-0.12018
9.80000,-0.98026,-0.11371
9.90000,-0.99040,-0.11925
10.00000,-1.00013,-0.12452
10.10000,-1.01026,-0.11345
10.20000,-1.02040,-0.11827
10.30000,-1.03026,-0.12225
10.40000,-1.04026,-0.12684
10.50000,-1.05026,-0.13063
10.60000,-1.06053,-0.12333
10.70000,-1.07026,-0.12707
10.80000,-1.08053,-0.13218
10.90000,-1.09040,-0.13687
11.00000,-1.10013,-0.14261
11.10000,-1.11066,-0.13157
11.20000,-1.12040,-0.13808
11.30000,-1.13040,-0.14164
11.40000,-1.14040,-0.14747
11.50000,-1.15013,-0.14392
11.60000,-1.16026,-0.14394
11.70000,-1.17040,-0.14690
11.80000,-1.18026,-0.15442
11.90000,-1.19026,-0.14792
12.00000,-1.20026,-0.15087
12.10000,-1.21040,-0.14721
12.20000,-1.22040,-0.15289
12.30000,-1.23066,-0.15947
12.40000,-1.24040,-0.16495
12.50000,-1.25013,-0.16097
12.60000,-1.26040,-0.16380
12.70000,-1.27026,-0.16215
12.80000,-1.28013,-0.17362
12.90000,-1.29040,-0.17248
13.00000,-1.30013,-0.17285
13.10000,-1.31040,-0.16400
13.20000,-1.32053,-0.18586
13.30000,-1.33026,-0.18119
13.40000,-1.34040,-0.17853
13.50000,-1.35053,-0.18434
13.60000,-1.36053,-0.18347
13.70000,-1.37053,-0.18519
13.80000,-1.38040,-0.18376
13.90000,-1.39040,-0.19328
14.00000,-1.40026,-0.19119
14.10000,-1.41053,-0.18333
14.20000,-1.42013,-0.19256
14.30000,-1.43000,-0.20032
14.40000,-1.44066,-0.19798
14.50000,-1.45026,-0.19668
14.60000,-1.46040,-0.20353
14.70000,-1.47053,-0.20663
14.80000,-1.48013,-0.20910
14.90000,-1.49053,-0.20693
15.00000,-1.50053,-0.21449
15.10000,-1.51040,-0.21623
15.20000,-1.52026,-0.21437
15.30000,-1.53026,-0.21662
15.40000,-1.54026,-0.22189
15.50000,-1.55026,-0.22292
15.60000,-1.56013,-0.22014
15.70000,-1.57013,-0.22632
15.80000,-1.58013,-0.23980
15.90000,-1.59053,-0.23403
16.00000,-1.60040,-0.23674
16.10000,-1.61040,-0.22894
16.20000,-1.62053,-0.24858
16.30000,-1.63026,-0.24194
16.40000,-1.64040,-0.24380
16.50000,-1.65053,-0.25020
16.60000,-1.66013,-0.24018
16.70000,-1.67040,-0.25061
16.80000,-1.68026,-0.25627
16.90000,-1.69013,-0.25702
17.00000,-1.70026,-0.26047
17.10000,-1.71026,-0.25789
17.20000,-1.72040,-0.26170
17.30000,-1.73066,-0.27602
17.40000,-1.74053,-0.27882
17.50000,-1.75053,-0.27309
17.60000,-1.76040,-0.27044
17.70000,-1.77053,-0.27560
17.80000,-1.78026,-0.27612
17.90000,-1.79053,-0.28325
18.00000,-1.80053,-0.28581
18.10000,-1.81013,-0.28374
18.20000,-1.82053,-0.29096
18.30000,-1.83026,-0.29756
18.40000,-1.84040,-0.30501
18.50000,-1.85053,-0.30793
18.60000,-1.86013,-0.30740
18.70000,-1.87026,-0.30866
18.80000,-1.88040,-0.31502
18.90000,-1.89053,-0.31698
19.00000,-1.90040,-0.33216
19.10000,-1.91040,-0.32449
19.20000,-1.92040,-0.33667
19.30000,-1.93013,-0.34384
19.40000,-1.94053,-0.34759
19.50000,-1.95040,-0.35128
19.60000,-1.96013,-0.35077
19.70000,-1.97066,-0.36035
19.80000,-1.98040,-0.36290
19.90000,-1.99026,-0.36716
20.00000,-2.00066,-0.38184
20.10000,-2.01040,-0.37955
20.20000,-2.02040,-0.38639
20.30000,-2.03053,-0.39260
20.40000,-2.04013,-0.39707
20.50000,-2.05040,-0.39866
20.60000,-2.06053,-0.40445
20.70000,-2.07026,-0.40954
20.80000,-2.08013,-0.42397
20.90000,-2.09013,-0.43057
21.00000,-2.10026,-0.43690
21.10000,-2.11013,-0.43615
21.20000,-2.12053,-0.44967
21.30000,-2.13039,-0.46266
21.40000,-2.14013,-0.46977
21.50000,-2.15066,-0.48662
21.60000,-2.16039,-0.49026
21.70000,-2.17026,-0.50914
21.80000,-2.18066,-0.52355
21.90000,-2.19013,-0.52582
22.00000,-2.20026,-0.53998
22.10000,-2.21053,-0.53810
22.20000,-2.22026,-0.54074
22.30000,-2.23026,-0.54996
22.40000,-2.24026,-0.56053
22.50000,-2.25039,-0.56113
22.60000,-2.26053,-0.57026
22.70000,-2.27053,-0.57944
22.80000,-2.28039,-0.59687
22.90000,-2.29039,-0.59543
23.00000,-2.30066,-0.61053
23.10000,-2.31039,-0.61294
23.20000,-2.32026,-0.61927
23.30000,-2.33066,-0.63044
23.40000,-2.34026,-0.64147
23.50000,-2.35026,-0.65437
23.60000,-2.36039,-0.65755
23.70000,-2.37013,-0.67230
23.80000,-2.38053,-0.68250
23.90000,-2.39039,-0.69563
24.00000,-2.40039,-0.69762
24.10000,-2.41053,-0.70406
24.20000,-2.42026,-0.71709
24.30000,-2.43053,-0.73125
24.40000,-2.44053,-0.75282
24.50000,-2.45053,-0.75921
24.60000,-2.46039,-0.77499
24.70000,-2.47026,-0.80504
24.80000,-2.48053,-0.83702
24.90000,-2.49013,-0.86547
25.00000,-2.50039,-0.88919
25.10000,-2.51039,-0.89434
25.20000,-2.52013,-0.89327
25.30000,-2.53066,-0.91797
25.40000,-2.54039,-0.93402
25.50000,-2.55026,-0.95109
25.60000,-2.56053,-0.94599
25.70000,-2.57039,-0.96516
25.80000,-2.58039,-0.97404
25.90000,-2.59039,-0.99961
26.00000,-2.60026,-1.02768
26.10000,-2.61026,-1.04526
26.20000,-2.62026,-1.06936
26.30000,-2.63026,-1.09011
26.40000,-2.64013,-1.11446
26.50000,-2.65026,-1.12429
26.60000,-2.66053,-1.14400
26.70000,-2.67026,-1.15935
26.80000,-2.68053,-1.18965
26.90000,-2.69039,-1.21372
27.00000,-2.70013,-1.25468
27.10000,-2.71053,-1.24558
27.20000,-2.72026,-1.29599
27.30000,-2.73026,-1.34035
27.40000,-2.74039,-1.37888
27.50000,-2.75013,-1.41451
27.60000,-2.76026,-1.41123
27.70000,-2.77053,-1.43534
27.80000,-2.78026,-1.47181
27.90000,-2.79026,-1.50572
28.00000,-2.80053,-1.55722
28.10000,-2.81053,-1.58883
28.20000,-2.82026,-1.61865
28.30000,-2.83053,-1.64958
28.40000,-2.84039,-1.67306
28.50000,-2.85013,-1.70881
28.60000,-2.86066,-1.74606
28.70000,-2.87039,-1.78803
28.80000,-2.88013,-1.81876
28.90000,-2.89039,-1.84070
29.00000,-2.90013,-1.85304
29.10000,-2.91039,-1.89033
29.20000,-2.92066,-1.93909
29.30000,-2.93039,-1.96204
29.40000,-2.94053,-1.96645
29.50000,-2.95053,-2.00480
29.60000,-2.96039,-2.04828
29.70000,-2.97039,-2.08830
29.80000,-2.98039,-2.12866
29.90000,-2.99053,-1.64263
30.00000,-3.00026,-1.73176
30.10000,-3.01066,-1.79627
30.20000,-3.02026,-1.83846
30.30000,-3.02999,-1.90440
30.40000,-3.04066,-1.89661
30.50000,-3.05026,-1.92329
30.60000,-3.06053,-2.00476
30.70000,-3.07053,-2.08495
30.80000,-3.08013,-2.15349
30.90000,-3.09053,-2.21852
31.00000,-3.10053,-2.28176
31.10000,-3.11039,-2.31846
31.20000,-3.12039,-2.36077
31.30000,-3.13026,-2.40543
31.40000,-3.14026,-2.44785
31.50000,-3.15026,-2.48368
31.60000,-3.16026,-2.46420
31.70000,-3.17026,-2.49313
31.80000,-3.18013,-2.49039
31.90000,-3.19039,-2.49127
32.00000,-3.20026,-2.56077
32.10000,-3.21039,-2.59494
32.20000,-3.22066,-2.63884
32.30000,-3.23026,-2.69119
32.40000,-3.24039,-2.73229
32.50000,-3.25053,-2.76410
32.60000,-3.25999,-2.79088
32.70000,-3.27039,-2.84655
32.80000,-3.28039,-2.86518
32.90000,-3.29013,-2.91239
33.00000,-3.30026,-2.94081
33.10000,-3.31026,-2.95704
33.20000,-3.32039,-3.01257
33.30000,-3.33053,-3.06489
33.40000,-3.34053,-3.12038
33.50000,-3.35039,-3.15121
33.60000,-3.36039,-3.20020
33.70000,-3.37066,-3.25926
33.80000,-3.38026,-3.29657
33.90000,-3.39039,-3.33660
34.00000,-3.40039,-3.10130
34.10000,-3.40999,-3.04457
34.20000,-3.42052,-3.08257
34.30000,-3.43026,-3.11271
34.40000,-3.44026,-3.16325
34.50000,-3.45052,-3.21041
34.60000,-3.46026,-3.24894
34.70000,-3.47039,-3.27911
34.80000,-3.48066,-3.32938
34.90000,-3.49039,-3.37470
35.00000,-3.50039,-3.44588
35.10000,-3.51039,-3.47192
35.20000,-3.52052,-3.50920
35.30000,-3.53026,-3.54413
35.40000,-3.54039,-3.59774
35.50000,-3.55039,-3.65735
35.60000,-3.56012,-3.70634
35.70000,-3.57052,-3.76763
35.80000,-3.58039,-3.81998
35.90000,-3.59012,-3.86123
36.00000,-3.60066,-3.91035
36.10000,-3.61039,-3.95298
36.20000,-3.62039,-4.00502
36.30000,-3.63052,-4.05738
36.40000,-3.64012,-4.11837
36.50000,-3.65039,-4.17278
36.60000,-3.66039,-4.21906
36.70000,-3.67026,-4.26127
36.80000,-3.68026,-4.30949
36.90000,-3.69012,-4.34995
37.00000,-3.70026,-4.40916
37.10000,-3.70999,-4.44424
37.20000,-3.72039,-4.51313
37.30000,-3.73039,-4.57188
37.40000,-3.74012,-4.61929
37.50000,-3.75066,-4.67374
37.60000,-3.76026,-4.71177
37.70000,-3.77039,-4.76159
37.80000,-3.78066,-4.81215
37.90000,-3.79026,-4.85135
38.00000,-3.80039,-4.89710
38.10000,-3.81052,-4.93381
38.20000,-3.82026,-4.93186
38.30000,-3.83026,-4.96926
38.40000,-3.84039,-5.01777
38.50000,-3.85039,-5.05452
38.60000,-3.86039,-5.08912
38.70000,-3.87052,-5.11619
38.80000,-3.88039,-5.14432
38.90000,-3.89039,-5.14978
39.00000,-3.90066,-5.17112
39.10000,-3.91039,-5.19968
39.20000,-3.92012,-5.26001
39.30000,-3.93052,-5.31917
39.40000,-3.94026,-5.37140
39.50000,-3.95026,-5.43105
39.60000,-3.96052,-5.49038
39.70000,-3.97012,-5.53080
39.80000,-3.98052,-5.57796
39.90000,-3.99052,-5.63097
40.00000,-4.00039,-5.67778
40.10000,-4.01052,-5.71792
40.20000,-4.02039,-5.77263
40.30000,-4.03052,-5.81694
40.40000,-4.04052,-5.86358
40.50000,-4.05052,-5.92093
40.60000,-4.06026,-5.97415
40.70000,-4.07012,-6.04400
40.80000,-4.08052,-6.09598
40.90000,-4.09012,-6.12943
41.00000,-4.10039,-6.18840
41.10000,-4.11052,-6.23507
41.20000,-4.12026,-6.28325
41.30000,-4.13066,-6.32844
41.40000,-4.14039,-6.37737
41.50000,-4.15026,-6.41489
41.60000,-4.16052,-6.46408
41.70000,-4.17039,-6.50423
41.80000,-4.18039,-6.51032
41.90000,-4.19039,-6.53989
42.00000,-4.20026,-6.58400
42.10000,-4.21039,-6.62370
42.20000,-4.22012,-6.68257
42.30000,-4.23026,-6.71708
42.40000,-4.24026,-6.75265
42.50000,-4.25012,-6.78392
42.60000,-4.26052,-6.81070
42.70000,-4.27026,-6.82746
42.80000,-4.28052,-6.85424
42.90000,-4.29052,-6.87493
43.00000,-4.30012,-6.90073
43.10000,-4.31066,-6.90909
43.20000,-4.32026,-6.93368
43.30000,-4.33026,-6.95997
43.40000,-4.34039,-6.97634
43.50000,-4.35012,-7.00568
43.60000,-4.36026,-6.99399
43.70000,-4.37039,-7.02709
43.80000,-4.38039,-7.06865
43.90000,-4.39026,-7.10948
44.00000,-4.40039,-7.14613
44.10000,-4.41052,-7.16970
44.20000,-4.42039,-7.16938
44.30000,-4.43052,-6.27962
44.40000,-4.44039,-6.37908
44.50000,-4.45012,-6.49069
44.60000,-4.46066,-6.60417
44.70000,-4.47026,-6.71081
44.80000,-4.48012,-6.81842
44.90000,-4.49039,-6.88995
45.00000,-4.50026,-6.98067
45.10000,-4.51026,-7.04841
45.20000,-4.52066,-7.12770
45.30000,-4.53026,-7.17430
45.40000,-4.54039,-7.22696
45.50000,-4.55052,-7.25568
45.60000,-4.56039,-7.29633
45.70000,-4.57039,-7.33852
45.80000,-4.58039,-7.36877
45.90000,-4.59039,-7.40599
46.00000,-4.60026,-7.43564
46.10000,-4.61066,-7.46800
46.20000,-4.62026,-7.49373
46.30000,-4.63012,-7.52107
46.40000,-4.64066,-7.53613
46.50000,-4.65026,-7.55056
46.60000,-4.66052,-7.55753
46.70000,-4.67052,-7.58605
46.80000,-4.68012,-7.55668
46.90000,-4.69066,-7.57174
47.00000,-4.70052,-7.08993
47.10000,-4.71026,-7.03920
47.20000,-4.72026,-7.06142
47.30000,-4.73012,-7.07677
47.40000,-4.74025,-7.11549
47.50000,-4.75026,-7.16019
47.60000,-4.76026,-7.18442
47.70000,-4.77026,-7.23733
47.80000,-4.78012,-7.26845
47.90000,-4.79052,-7.28885
48.00000,-4.80039,-7.31596
48.10000,-4.81026,-7.34536
48.20000,-4.82052,-7.39637
48.30000,-4.83026,-7.43185
48.40000,-4.84039,-7.49066
48.50000,-4.85052,-7.52290
48.60000,-4.86012,-7.53556
48.70000,-4.87039,-7.57238
48.80000,-4.88039,-7.59602
48.90000,-4.89025,-7.61725
49.00000,-4.90025,-7.62139
49.10000,-4.91025,-7.62024
49.20000,-4.92039,-7.65065
49.30000,-4.93039,-7.66963
49.40000,-4.94052,-7.68779
49.50000,-4.95039,-7.70221
49.60000,-4.96025,-7.71153
49.70000,-4.97065,-7.73012
49.80000,-4.98025,-7.70060
49.90000,-4.99039,-7.71981
50.00000,-5.00052,-7.73534
50.10000,-5.00999,-7.71721
50.20000,-5.02039,-7.74271
50.30000,-5.03025,-7.75993
50.40000,-5.04025,-7.75786
50.50000,-5.05039,-7.73306
50.60000,-5.06025,-7.74966
50.70000,-5.07039,-7.77671
50.80000,-5.08052,-7.80786
50.90000,-5.09065,-7.83147
51.00000,-5.10039,-7.85740
51.10000,-5.11052,-7.71498
51.20000,-5.12052,-7.72652
51.30000,-5.13025,-7.74629
51.40000,-5.14039,-7.78023
51.50000,-5.15039,-7.81818
51.60000,-5.15999,-7.83923
51.70000,-5.17052,-7.86925
51.80000,-5.18039,-7.89869
51.90000,-5.19025,-7.92201
52.00000,-5.20065,-7.94170
52.10000,-5.21039,-7.94833
52.20000,-5.22039,-7.97282
52.30000,-5.23052,-7.97913
52.40000,-5.24025,-8.00302
52.50000,-5.25039,-8.01260
52.60000,-5.26039,-8.02677
52.70000,-5.27025,-8.04658
52.80000,-5.28025,-8.06738
52.90000,-5.29012,-8.08787
53.00000,-5.30039,-8.09052
53.10000,-5.31025,-8.05847
53.20000,-5.32052,-8.06230
53.30000,-5.33039,-8.06780
53.40000,-5.34012,-8.06806
53.50000,-5.35065,-8.08004
53.60000,-5.36039,-8.02508
53.70000,-5.37052,-8.03843
53.80000,-5.38052,-8.07146
53.90000,-5.39012,-8.06012
54.00000,-5.40039,-8.06949
54.10000,-5.41039,-8.06391
54.20000,-5.42025,-8.07667
54.30000,-5.43025,-8.08200
54.40000,-5.44039,-8.09721
54.50000,-5.45039,-8.09774
54.60000,-5.46052,-8.11453
54.70000,-5.47052,-8.09622
54.80000,-5.48039,-8.11577
54.90000,-5.49039,-8.06597
55.00000,-5.50052,-8.05440
55.10000,-5.51039,-8.05272
55.20000,-5.52012,-8.02913
55.30000,-5.53052,-8.01163
55.40000,-5.54025,-8.00007
55.50000,-5.55039,-7.99522
55.60000,-5.56039,-7.99511
55.70000,-5.56999,-7.96585
55.80000,-5.58052,-7.91700
55.90000,-5.59052,-7.91387
56.00000,-5.60039,-7.91372
56.10000,-5.61065,-7.91386
56.20000,-5.62039,-7.91498
56.30000,-5.63052,-7.90844
56.40000,-5.64052,-7.90103
56.50000,-5.65052,-7.77338
56.60000,-5.66025,-7.78321
56.70000,-5.67025,-7.75752
56.80000,-5.68052,-7.76560
56.90000,-5.69012,-7.77322
57.00000,-5.70039,-7.80237
57.10000,-5.71039,-7.81149
57.20000,-5.72012,-7.83866
57.30000,-5.73065,-7.84810
57.40000,-5.74039,-7.84175
57.50000,-5.75025,-7.85748
57.60000,-5.76052,-7.86342
57.70000,-5.77039,-7.86707
57.80000,-5.78039,-7.88683
57.90000,-5.79039,-7.89391
58.00000,-5.80012,-7.91978
58.10000,-5.81025,-7.91387
58.20000,-5.82025,-7.93031
58.30000,-5.83039,-7.93473
58.40000,-5.84025,-7.93224
58.50000,-5.85025,-7.92827
58.60000,-5.86052,-7.77304
58.70000,-5.87012,-7.75905
58.80000,-5.88039,-7.76635
58.90000,-5.89039,-7.76005
59.00000,-5.90012,-7.76952
59.10000,-5.91052,-7.77849
59.20000,-5.92039,-7.80844
59.30000,-5.93025,-7.82281
59.40000,-5.94039,-7.84352
59.50000,-5.95012,-7.86307
59.60000,-5.96025,-7.88600
59.70000,-5.97052,-7.91669
59.80000,-5.98052,-7.94724
59.90000,-5.99052,-7.97826
60.00000,-6.00039,-8.00581
60.10000,-6.01052,-8.02944
60.20000,-6.02039,-8.05837
60.30000,-6.03065,-8.08733
60.40000,-6.04052,-8.12169
60.50000,-6.05025,-8.13515
60.60000,-6.06052,-8.16871
60.70000,-6.07039,-8.18899
60.80000,-6.08012,-8.21771
60.90000,-6.09039,-8.24315
61.00000,-6.10012,-8.25002
61.10000,-6.11039,-8.24489
61.20000,-6.12065,-8.27353
61.30000,-6.13025,-8.29028
61.40000,-6.14038,-8.31556
61.50000,-6.15052,-8.32298
61.60000,-6.16038,-8.35917
61.70000,-6.17039,-8.38536
61.80000,-6.18039,-8.41153
61.90000,-6.19038,-8.43508
62.00000,-6.20012,-8.46360
62.10000,-6.21052,-8.49196
62.20000,-6.22025,-8.51942
62.30000,-6.22999,-8.55355
62.40000,-6.24052,-8.58735
62.50000,-6.25025,-8.60943
62.60000,-6.26038,-8.63376
62.70000,-6.27052,-8.65260
62.80000,-6.28012,-8.64968
62.90000,-6.29052,-8.67933
63.00000,-6.30052,-8.71442
63.10000,-6.31038,-8.73756
63.20000,-6.32025,-8.77873
63.30000,-6.33025,-8.81524
63.40000,-6.34025,-8.85690
63.50000,-6.35025,-8.88598
63.60000,-6.36025,-8.91990
63.70000,-6.37025,-8.96555
63.80000,-6.38025,-9.00842
63.90000,-6.39065,-9.04354
64.00000,-6.40038,-9.08404
64.10001,-6.41038,-9.09918
64.20000,-6.42065,-9.16049
64.30000,-6.43025,-9.19242
64.40000,-6.44052,-9.22639
64.50000,-6.45052,-9.26197
64.60001,-6.46012,-9.28410
64.70000,-6.47052,-9.31876
64.80000,-6.48025,-9.34847
64.90000,-6.49012,-9.38461
65.00000,-6.50038,-9.40858
65.10001,-6.51025,-9.32210
65.20000,-6.52052,-9.37981
65.30000,-6.53065,-9.42134
65.40000,-6.54052,-9.46628
65.50000,-6.55025,-9.50124
65.60001,-6.56038,-9.53418
65.70001,-6.57052,-9.57168
65.80000,-6.58025,-9.59831
65.90000,-6.59052,-9.61436
66.00000,-6.60052,-9.63174
66.10001,-6.61012,-9.63971
66.20001,-6.62052,-9.67722
66.30000,-6.63025,-9.70619
66.40000,-6.64025,-9.74728
66.50000,-6.65052,-9.77382
66.60001,-6.66025,-9.79097
66.70001,-6.67038,-9.82097
66.80000,-6.68052,-9.84995
66.90000,-6.69038,-9.85777
67.00000,-6.70038,-9.88989
67.10001,-6.71052,-9.90461
67.20001,-6.72052,-9.92420
67.30000,-6.73025,-9.92908
67.40000,-6.74052,-9.87337
67.50000,-6.75025,-9.84909
67.60001,-6.76012,-9.82832
67.70001,-6.77065,-8.64698
67.80000,-6.78038,-7.08997
67.90000,-6.79025,-7.22827
68.00000,-6.80065,-7.33161
68.10001,-6.81038,-7.37725
68.20001,-6.82025,-7.45219
68.30000,-6.83052,-7.52032
68.40000,-6.84025,-7.58029
68.50000,-6.85052,-7.62121
68.60001,-6.86052,-7.66090
68.70001,-6.87025,-7.68493
68.80000,-6.88025,-7.70577
68.90000,-6.89025,-7.71269
69.00000,-6.90025,-7.72961
69.10001,-6.91012,-7.75134
69.20001,-6.92038,-7.80827
69.30000,-6.93025,-7.83014
69.40000,-6.94012,-7.85768
69.50000,-6.95065,-7.86778
69.60001,-6.96038,-7.91875
69.70001,-6.97038,-7.97261
69.80000,-6.98052,-8.02904
69.90000,-6.99012,-8.08095
70.00000,-7.00038,-8.13241
70.10001,-7.01038,-8.16934
70.20001,-7.02025,-8.24430
70.30000,-7.03025,-8.30281
70.40000,-7.04038,-8.31703
70.50000,-7.05038,-8.37933
70.60001,-7.06052,-8.44248
70.70001,-7.07052,-8.49153
70.80000,-7.08052,-8.54912
70.90000,-7.09038,-8.60131
71.00000,-7.10065,-8.65032
71.10001,-7.11038,-8.68340
71.20001,-7.12025,-8.70805
71.30000,-7.13052,-8.73407
71.40000,-7.14025,-8.75242
71.50000,-7.15025,-8.76254
71.60001,-7.16038,-8.77297
71.70001,-7.17012,-8.59103
71.80000,-7.18052,-8.59260
71.90000,-7.19052,-8.64913
72.00000,-7.20038,-8.71121
72.10001,-7.21052,-8.76685
72.20001,-7.22025,-8.83323
72.30000,-7.23038,-8.89483
72.40000,-7.24038,-8.96579
72.50000,-7.25038,-9.04301
72.60001,-7.26025,-9.11564
72.70001,-7.27025,-9.19456
72.80000,-7.28052,-9.27084
72.90000,-7.29012,-9.34496
73.00000,-7.30052,-9.42759
73.10001,-7.31038,-9.49431
73.20001,-7.32012,-9.56263
73.30000,-7.33065,-9.62343
73.40000,-7.34038,-9.67539
73.50000,-7.35025,-9.73825
73.60001,-7.36052,-9.77118
73.70001,-7.37038,-9.81157
73.80000,-7.38038,-9.85457
73.90000,-7.39052,-9.84852
74.00000,-7.40025,-9.86701
74.10001,-7.41025,-9.87659
74.20001,-7.42025,-9.88504
74.30000,-7.43025,-9.83951
74.40000,-7.44012,-9.80772
74.50000,-7.45025,-9.81952
74.60001,-7.46052,-9.83955
74.70001,-7.47025,-9.85182
74.80000,-7.48052,-9.85989
74.90000,-7.49038,-9.86807
75.00000,-7.50011,-9.84849
75.10001,-7.51065,-9.82581
75.20001,-7.52038,-9.82873
75.30000,-7.53025,-9.78747
75.40000,-7.54038,-9.79976
75.50000,-7.55011,-9.84002
75.60001,-7.56025,-9.88527
75.70001,-7.57038,-9.94415
75.80000,-7.58038,-9.99479
75.90000,-7.59038,-10.03730
76.00000,-7.60038,-10.08139
76.10001,-7.61051,-10.12386
76.20001,-7.62051,-10.16061
76.30000,-7.63051,-10.19696
76.40000,-7.64038,-10.23095
76.50000,-7.65025,-10.24975
76.60001,-7.66051,-10.28877
76.70001,-7.67038,-10.33328
76.80000,-7.68025,-10.37727
76.90000,-7.69051,-10.40620
77.00000,-7.70025,-10.45023
77.10001,-7.71038,-10.47202
77.20001,-7.72051,-10.52795
77.30000,-7.73038,-10.52102
77.40000,-7.74051,-10.55253
77.50000,-7.75051,-10.58150
77.60001,-7.76038,-10.60025
77.70001,-7.77038,-10.60437
77.80000,-7.78038,-10.61088
77.90000,-7.79051,-10.60942
78.00000,-7.80038,-10.57910
78.10001,-7.81065,-10.59626
78.20001,-7.82025,-10.63042
78.30000,-7.82998,-10.65342
78.40000,-7.84065,-10.69133
78.50000,-7.85025,-10.71092
78.60001,-7.86051,-10.74215
78.70001,-7.87051,-10.78049
78.80000,-7.88011,-10.80116
78.90000,-7.89051,-10.80275
79.00000,-7.90038,-10.77359
79.10001,-7.91025,-10.70370
79.20001,-7.92038,-8.32586
79.30000,-7.93038,-7.77381
79.40000,-7.94038,-7.80243
79.50000,-7.95025,-7.81884
79.60001,-7.96011,-7.83511
79.70001,-7.97025,-7.88602
79.80000,-7.98011,-7.92557
79.90000,-7.99051,-7.94698
80.00000,-8.00038,-7.87977
80.10001,-8.01038,-7.89487
80.20001,-8.02065,-7.92963
80.30000,-8.03025,-7.95025
80.40000,-8.04038,-7.99019
80.50001,-8.05051,-8.03754
80.60001,-8.06011,-8.03122
80.70001,-8.07038,-8.02584
80.80000,-8.08025,-7.99095
80.90000,-8.09025,-8.01004
81.00001,-8.10038,-8.04167
81.10001,-8.11025,-8.02694
81.20001,-8.12038,-8.06756
81.30000,-8.13051,-8.09878
81.40000,-8.14051,-8.12235
81.50001,-8.15038,-8.12735
81.60001,-8.16038,-8.13795
81.70001,-8.17051,-8.15887
81.80000,-8.18011,-8.18530
81.90000,-8.19051,-8.19750
82.00001,-8.20038,-8.19102
82.10001,-8.21011,-8.20683
82.20001,-8.22051,-7.86377
82.30000,-8.23025,-7.91316
82.40000,-8.24025,-7.97661
82.50001,-8.25051,-7.99914
82.60001,-8.26025,-7.98485
82.70001,-8.27038,-7.98294
82.80000,-8.28051,-8.03831
82.90000,-8.29051,-8.07188
83.00001,-8.30038,-8.09486
83.10001,-8.31051,-8.09059
83.20001,-8.32038,-8.12774
83.30000,-8.33025,-8.16344
83.40000,-8.34051,-8.19346
83.50001,-8.35038,-8.17940
83.60001,-8.36011,-8.21310
83.70001,-8.37051,-8.24839
83.80000,-8.38025,-8.28014
83.90000,-8.39025,-8.29728
84.00001,-8.40065,-8.33144
84.10001,-8.41038,-8.34848
84.20001,-8.42038,-8.37457
84.30000,-8.43065,-8.37786
84.40000,-8.44011,-8.40184
84.50001,-8.45038,-8.40857
84.60001,-8.46051,-8.41381
84.70001,-8.47025,-8.44574
84.80000,-8.48011,-8.46651
84.90000,-8.49011,-8.47077
85.00001,-8.50038,-8.47008
85.10001,-8.51025,-8.13196
85.20001,-8.52051,-7.94193
85.30000,-8.53038,-7.98212
85.40000,-8.54011,-8.01440
85.50001,-8.55051,-8.04806
85.60001,-8.56011,-8.09217
85.70001,-8.57038,-8.11813
85.80000,-8.58065,-8.12279
85.90000,-8.59011,-8.12116
86.00001,-8.60038,-8.12174
86.10001,-8.61051,-8.12195
86.20001,-8.62011,-8.12949
86.30000,-8.63025,-8.15036
86.40000,-8.64038,-8.16851
86.50001,-8.65025,-8.19015
86.60001,-8.66038,-8.12323
86.70001,-8.67051,-8.14683
86.80000,-8.68038,-8.17218
86.90000,-8.69038,-8.19081
87.00001,-8.70065,-8.24233
87.10001,-8.71038,-8.21151
87.20001,-8.72025,-8.32189
87.30000,-8.73065,-8.40610
87.40000,-8.74025,-8.47179
87.50001,-8.75025,-8.53121
87.60001,-8.76038,-8.53102
87.70001,-8.77011,-8.57214
87.80000,-8.78051,-8.60096
87.90000,-8.79051,-8.63789
88.00001,-8.80038,-8.63150
88.10001,-8.81051,-8.59730
88.20001,-8.82038,-8.60504
88.30000,-8.83051,-8.64696
88.40000,-8.84051,-8.64965
88.50001,-8.85038,-8.67834
88.60001,-8.86011,-8.69787
88.70001,-8.87011,-8.75684
88.80000,-8.88038,-8.71705
88.90000,-8.89011,-8.76400
89.00001,-8.90038,-8.78905
89.10001,-8.91051,-8.84755
89.20001,-8.92024,-8.84982
89.30000,-8.93051,-8.87798
89.40000,-8.94038,-8.94449
89.50001,-8.95024,-8.97305
89.60001,-8.96038,-9.01275
89.70001,-8.97038,-9.06141
89.80000,-8.98038,-9.10522
89.90000,-8.99038,-9.05044
90.00001,-9.00024,-9.07940
90.10001,-9.01025,-9.00228
90.20001,-9.02024,-8.90797
90.30000,-9.03025,-8.92648
90.40000,-9.04011,-8.95226
90.50001,-9.05024,-8.97305
90.60001,-9.06051,-8.99378
90.70001,-9.07024,-8.99244
90.80000,-9.08051,-8.98675
90.90000,-9.09051,-8.67376
91.00001,-9.10011,-8.69658
91.10001,-9.11051,-8.71716
91.20001,-9.12024,-8.73326
91.30000,-9.13024,-8.74515
91.40000,-9.14051,-8.77252
91.50001,-9.15011,-8.75937
91.60001,-9.16024,-8.78214
91.70001,-9.17038,-8.82298
91.80000,-9.18038,-8.86458
91.90000,-9.19038,-8.90004
92.00001,-9.20038,-8.90435
92.10001,-9.21051,-8.92265
92.20001,-9.22038,-8.96547
92.30000,-9.23051,-9.01796
92.40000,-9.24038,-9.09023
92.50001,-9.25024,-9.15460
92.60001,-9.26064,-9.18280
92.70001,-9.27038,-9.12032
92.80000,-9.28011,-9.23190
92.90000,-9.29038,-9.33412
93.00001,-9.30011,-9.40226
93.10001,-9.31024,-9.38640
93.20001,-9.32064,-9.35162
93.30000,-9.33038,-9.40381
93.40000,-9.34038,-9.45885
93.50001,-9.35051,-9.52749
93.60001,-9.36038,-9.47656
93.70001,-9.37038,-9.52630
93.80000,-9.38051,-9.56417
93.90000,-9.39051,-9.57057
94.00001,-9.40011,-9.58615
94.10001,-9.41051,-9.59414
94.20001,-9.42024,-9.63129
94.30000,-9.43011,-9.65772
94.40000,-9.44064,-9.69880
94.50001,-9.45024,-9.71411
94.60001,-9.46038,-9.73010
94.70001,-9.47051,-9.77163
94.80000,-9.48011,-9.77404
94.90000,-9.49051,-9.66385
95.00001,-9.50051,-9.74797
95.10001,-9.51038,-9.79969
95.20001,-9.52024,-9.80960
95.30000,-9.53011,-9.82750
95.40000,-9.54024,-9.83619
95.50001,-9.55024,-9.86934
95.60001,-9.56024,-9.90396
95.70001,-9.57024,-9.90847
95.80000,-9.58011,-9.83989
95.90000,-9.59051,-9.87745
96.00001,-9.60038,-9.84173
96.10001,-9.61038,-9.66559
96.20001,-9.62064,-9.79328
96.30000,-9.63024,-9.84989
96.40000,-9.64038,-9.86881
96.50001,-9.65051,-9.92456
96.60001,-9.66011,-9.92760
96.70001,-9.67051,-9.98012
96.80000,-9.68038,-9.93317
96.90000,-9.69024,-9.91384
97.00001,-9.70024,-9.96633
97.10001,-9.71024,-9.88558
97.20001,-9.72038,-9.86946
97.30000,-9.73051,-9.93395
97.40000,-9.74064,-9.92510
97.50001,-9.75038,-9.86468
97.60001,-9.76038,-9.91441
97.70001,-9.77051,-9.91094
97.80000,-9.78024,-9.88522
97.90000,-9.79038,-9.85594
98.00001,-9.80038,-9.89841
98.10001,-9.80998,-9.89367
98.20001,-9.82038,-9.93511
98.30000,-9.83038,-9.92218
98.40000,-9.84038,-9.98994
98.50001,-9.85051,-10.00677
98.60001,-9.86024,-9.97079
98.70001,-9.87024,-9.99427
98.80000,-9.88038,-10.02557
98.90000,-9.89051,-10.00911
99.00001,-9.90038,-10.10673
99.10001,-9.91038,-10.14496
99.20001,-9.92051,-10.16882
99.30000,-9.93024,-10.25193
99.40000,-9.94051,-10.22681
99.50001,-9.95024,-10.23081
99.60001,-9.96011,-10.16103
99.70001,-9.97051,-10.17988
99.80000,-9.98038,-10.23121
99.90000,-9.99024,-10.23553
100.00001,-10.00064,-10.19080
100.10001,-10.01038,-10.23698
100.20001,-10.02038,-10.28188
100.30000,-10.03051,-10.24370
100.40000,-10.04024,-10.27863
100.50001,-10.05051,-10.27493
100.60001,-10.06051,-10.27421
100.70001,-10.07024,-10.29312
100.80000,-10.08011,-10.32324
100.90000,-10.09011,-10.25172
101.00001,-10.10038,-10.30726
101.10001,-10.11024,-10.31219
101.20001,-10.12038,-10.34147
101.30000,-10.13038,-10.31321
101.40000,-10.14011,-10.33658
101.50001,-10.15064,-10.37632
101.60001,-10.16038,-10.40832
101.70001,-10.17024,-10.40477
101.80000,-10.18051,-10.34815
101.90000,-10.19011,-10.35353
102.00001,-10.20024,-10.40050
102.10001,-10.21051,-10.35482
102.20001,-10.22024,-10.36275
102.30000,-10.23024,-10.33433
102.40000,-10.24038,-10.42696
102.50001,-10.25037,-10.45763
102.60001,-10.26038,-10.42690
102.70001,-10.27051,-10.38370
102.80000,-10.28038,-10.37604
102.90000,-10.29037,-10.40535
103.00001,-10.30064,-10.40051
103.10001,-10.31038,-10.34304
103.20001,-10.32024,-10.28969
103.30000,-10.33051,-10.29966
103.40000,-10.34011,-10.32489
103.50001,-10.35037,-10.22263
103.60001,-10.36038,-10.24890
103.70001,-10.36998,-10.29998
103.80000,-10.38051,-10.35136
103.90000,-10.39051,-10.31079
104.00001,-10.40037,-10.26560
104.10001,-10.41051,-10.31200
104.20001,-10.42037,-10.29875
104.30000,-10.43051,-10.35437
104.40000,-10.44051,-10.35300
104.50001,-10.45051,-10.28221
104.60001,-10.46024,-10.23110
104.70001,-10.47011,-10.29550
104.80000,-10.48051,-10.27978
104.90000,-10.49011,-10.28665
105.00001,-10.50037,-10.36431
105.10001,-10.51051,-10.32997
105.20001,-10.52024,-10.31096
105.30000,-10.53051,-10.33406
105.40000,-10.54037,-10.37739
105.50001,-10.55011,-10.31787
105.60001,-10.56037,-10.27746
105.70001,-10.57037,-10.29895
105.80000,-10.58037,-10.33235
105.90000,-10.59037,-10.23424
106.00001,-10.60037,-10.25381
106.10001,-10.61037,-10.23156
106.20001,-10.62024,-10.21476
106.30000,-10.63024,-10.21551
106.40000,-10.64011,-10.24765
106.50001,-10.65011,-10.29496
106.60001,-10.66064,-10.27022
106.70001,-10.67037,-10.24953
106.80000,-10.68037,-10.26245
106.90000,-10.69051,-10.27704
107.00001,-10.70011,-10.19368
107.10001,-10.71051,-10.17334
107.20001,-10.72037,-10.19701
107.30000,-10.73024,-10.18083
107.40000,-10.74024,-10.26295
107.50001,-10.75011,-10.23802
107.60001,-10.76024,-10.17703
107.70001,-10.77024,-10.18415
107.80000,-10.78051,-10.15125
107.90000,-10.79037,-10.11739
108.00001,-10.80037,-10.15409
108.10001,-10.81051,-10.08222
108.20001,-10.82051,-10.11621
108.30000,-10.83064,-10.14816
108.40000,-10.84051,-10.12630
108.50001,-10.85024,-10.10254
108.60001,-10.86051,-10.07997
108.70001,-10.87051,-10.06140
108.80000,-10.88024,-10.02769
108.90000,-10.89051,-10.08144
109.00001,-10.90024,-10.11555
109.10001,-10.91037,-10.09067
109.20001,-10.92064,-10.11482
109.30000,-10.93037,-10.05749
109.40000,-10.94037,-10.04668
109.50001,-10.95051,-10.11449
109.60001,-10.96051,-10.08539
109.70001,-10.97051,-9.97940
109.80000,-10.98051,-10.01224
109.90000,-10.99037,-9.99317
110.00001,-11.00024,-9.98819
110.10001,-11.01064,-10.00200
110.20001,-11.02037,-10.03310
110.30000,-11.03011,-9.98968
110.40000,-11.04064,-10.01512
110.50001,-11.05024,-9.99654
110.60001,-11.06051,-9.95777
110.70001,-11.07051,-9.95037
110.80000,-11.08024,-9.94745
110.90000,-11.09064,-9.98061
111.00001,-11.10051,-9.98806
111.10001,-11.11051,-9.96485
111.20001,-11.12051,-9.97556
111.30000,-11.13024,-9.94456
111.40000,-11.14037,-9.92853
111.50001,-11.15024,-9.96402
111.60001,-11.16024,-9.90962
111.70001,-11.17024,-9.92861
111.80000,-11.18024,-9.96594
111.90000,-11.19051,-9.97218
112.00001,-11.20024,-9.94497
112.10001,-11.21037,-9.97846
112.20001,-11.22051,-9.97480
112.30000,-11.23024,-9.98076
112.40000,-11.24064,-9.98487
112.50001,-11.25051,-10.04586
112.60001,-11.26011,-10.03437
112.70001,-11.27051,-10.06318
112.80000,-11.28037,-10.01773
112.90001,-11.29024,-10.01566
113.00001,-11.30037,-10.00227
113.10001,-11.31037,-10.00194
113.20001,-11.32051,-10.03564
113.30000,-11.33051,-10.02007
113.40001,-11.34051,-10.00125
113.50001,-11.35037,-9.98072
113.60001,-11.36051,-10.00055
113.70001,-11.37064,-10.02253
113.80000,-11.38037,-10.01341
113.90001,-11.39051,-10.00829
114.00001,-11.40037,-10.06830
114.10001,-11.41011,-9.99956
114.20001,-11.42051,-10.00692
114.30000,-11.43024,-10.03090
114.40001,-11.44024,-10.07026
114.50001,-11.45051,-10.06678
114.60001,-11.46024,-10.05829
114.70001,-11.47037,-10.00055
114.80000,-11.48051,-10.05320
114.90001,-11.49024,-10.10188
115.00001,-11.50024,-10.08040
115.10001,-11.51051,-10.08300
115.20001,-11.52064,-10.14118
115.30000,-11.53051,-10.08708
115.40001,-11.54064,-10.12423
115.50001,-11.55037,-10.04680
115.60001,-11.56010,-10.04227
115.70001,-11.57050,-10.06934
115.80000,-11.58037,-10.10699
115.90001,-11.59024,-10.15469
116.00001,-11.60064,-10.08926
116.10001,-11.61037,-10.10877
116.20001,-11.62037,-10.09484
116.30000,-11.63051,-10.09683
116.40001,-11.64024,-10.10031
116.50001,-11.65050,-10.14736
116.60001,-11.66051,-10.11396
116.70001,-11.67037,-10.10168
116.80000,-11.68037,-10.15210
116.90001,-11.69024,-10.13956
117.00001,-11.70037,-10.18712
117.10001,-11.71024,-10.16345
117.20001,-11.72050,-10.15714
117.30000,-11.73051,-10.20468
117.40001,-11.74024,-10.18642
117.50001,-11.75064,-10.21280
117.60001,-11.76037,-10.18818
117.70001,-11.77037,-10.18644
117.80000,-11.78051,-10.14601
117.90001,-11.79010,-10.15295
118.00001,-11.80024,-10.21226
118.10001,-11.81050,-10.22794
118.20001,-11.82024,-10.23442
118.30000,-11.83024,-10.23288
118.40001,-11.84037,-10.26600
118.50001,-11.85037,-10.25772
118.60001,-11.86050,-10.28425
118.70001,-11.87037,-10.31574
118.80000,-11.88024,-10.26983
118.90001,-11.89037,-10.30781
119.00001,-11.90050,-10.38801
119.10001,-11.91037,-10.37401
119.20001,-11.92024,-10.39941
119.30000,-11.93050,-10.39104
119.40001,-11.94024,-10.41155
119.50001,-11.95037,-10.42949
119.60001,-11.96037,-10.32234
119.70001,-11.97010,-10.36128
119.80000,-11.98050,-10.32882
119.90001,-11.99050,-10.28339
120.00001,-12.00037,-10.32735
120.10001,-12.01050,-10.35132
120.20001,-12.02037,-10.35131
120.30000,-12.03050,-10.34601
120.40001,-12.04064,-10.30426
120.50001,-12.05064,-10.31258
120.60001,-12.06037,-10.34225
120.70001,-12.07024,-10.30704
120.80000,-12.08050,-10.34300
120.90001,-12.09024,-10.37432
121.00001,-12.10050,-10.35066
121.10001,-12.11050,-10.32283
121.20001,-12.12010,-10.39267
121.30000,-12.13064,-10.41500
121.40001,-12.14050,-10.34494
121.50001,-12.15037,-10.38006
121.60001,-12.16064,-10.39042
121.70001,-12.17037,-10.37678
121.80000,-12.18024,-10.42287
121.90001,-12.19050,-10.43119
122.00001,-12.20037,-10.45772
122.10001,-12.21037,-10.35161
122.20001,-12.22024,-10.33047
122.30000,-12.23024,-10.35779
122.40001,-12.24024,-10.35261
122.50001,-12.25024,-10.32328
122.60001,-12.26050,-10.31994
122.70001,-12.27037,-10.37692
122.80000,-12.28064,-10.39203
122.90001,-12.29050,-10.38295
123.00001,-12.30024,-10.36588
123.10001,-12.31064,-10.39921
123.20001,-12.32037,-10.40277
123.30000,-12.33024,-10.43596
123.40001,-12.34050,-10.41535
123.50001,-12.35010,-10.39863
123.60001,-12.36024,-10.39482
123.70001,-12.37050,-10.45668
123.80000,-12.38037,-10.43137
123.90001,-12.39037,-10.43701
124.00001,-12.40050,-10.43020
124.10001,-12.41050,-10.43023
124.20001,-12.42050,-10.42287
124.30000,-12.43064,-10.40682
124.40001,-12.44037,-10.41811
124.50001,-12.45024,-10.39848
124.60001,-12.46064,-10.40377
124.70001,-12.47037,-10.44307
124.80000,-12.48024,-10.48138
124.90001,-12.49050,-10.47027
125.00001,-12.50024,-10.45187
125.10001,-12.51037,-10.44412
125.20001,-12.52050,-10.45348
125.30000,-12.53024,-10.49008
125.40001,-12.54037,-10.50402
125.50001,-12.55050,-10.50299
125.60001,-12.56050,-10.50838
125.70001,-12.57050,-10.50009
125.80000,-12.58050,-10.50106
125.90001,-12.59050,-10.52654
126.00001,-12.60037,-10.54482
126.10001,-12.61050,-10.52762
126.20001,-12.62024,-10.54030
126.30000,-12.63010,-10.52354
126.40001,-12.64050,-10.53508
126.50001,-12.65024,-10.52912
126.60001,-12.66050,-10.53523
126.70001,-12.67050,-10.55843
126.80000,-12.68010,-10.58072
126.90001,-12.69050,-10.60686
127.00001,-12.70050,-10.58864
127.10001,-12.71037,-10.55556
127.20001,-12.72037,-10.56037
127.30000,-12.73024,-10.55307
127.40001,-12.74037,-10.56813
127.50001,-12.75037,-10.60348
127.60001,-12.76024,-10.60071
127.70001,-12.77024,-10.63774
127.80000,-12.78010,-10.61115
127.90001,-12.79037,-10.62526
128.00000,-12.80037,-10.63630
128.10001,-12.81024,-10.63516
128.20002,-12.82050,-10.63452
128.30000,-12.83024,-10.64426
128.40001,-12.84050,-10.65747
128.50000,-12.85050,-10.65668
128.60001,-12.86010,-10.63027
128.70002,-12.87050,-10.67234
128.80000,-12.88037,-10.67795
128.90001,-12.89024,-10.67128
129.00000,-12.90037,-10.64370
129.10001,-12.91023,-10.68358
129.20002,-12.92050,-10.69191
129.30000,-12.93064,-10.69415
129.40001,-12.94050,-10.70952
129.50000,-12.95037,-10.73297
129.60001,-12.96037,-10.72234
129.70002,-12.97050,-10.70069
129.80000,-12.98037,-10.74578
129.90001,-12.99050,-10.76325
130.00000,-13.00037,-10.73592
130.10001,-13.01023,-10.76261
130.20002,-13.02050,-10.81264
130.30000,-13.03023,-10.80011
130.40001,-13.04024,-10.83104
130.50000,-13.05050,-10.84075
130.60001,-13.06037,-10.84056
130.70002,-13.07050,-10.87505
130.80000,-13.08064,-10.90745
130.90001,-13.09050,-10.88357
131.00000,-13.10050,-10.87382
131.10000,-13.11050,-10.86295
131.20002,-13.12050,-10.87177
131.30000,-13.13023,-10.77557
131.40002,-13.14050,-10.79141
131.50000,-13.15037,-10.80498
131.60000,-13.16010,-10.81553
131.70002,-13.17050,-10.82475
131.80000,-13.18037,-10.80685
131.90002,-13.19023,-10.84257
132.00000,-13.20063,-10.88818
132.10000,-13.21037,-10.88613
132.20002,-13.22037,-10.90069
132.30000,-13.23063,-10.90893
132.40002,-13.24023,-10.90256
132.50000,-13.25037,-10.93351
132.60000,-13.26050,-10.93605
132.70002,-13.27023,-10.94869
132.80000,-13.28023,-10.98400
132.90002,-13.29023,-10.99269
133.00000,-13.30037,-11.00716
133.10000,-13.31023,-11.00358
133.20002,-13.32050,-11.01399
133.30000,-13.33037,-11.02409
133.40002,-13.34010,-11.03185
133.50000,-13.35063,-11.04411
133.60000,-13.36037,-11.05814
133.70002,-13.37050,-11.06039
133.80000,-13.38063,-11.08454
133.90002,-13.39010,-11.10861
134.00000,-13.40037,-11.09503
134.10000,-13.41050,-11.06470
134.20002,-13.42037,-11.06443
134.30000,-13.43023,-11.10139
134.40002,-13.44037,-11.12480
134.50000,-13.45037,-11.10906
134.60000,-13.46050,-11.11520
134.70002,-13.47050,-11.12218
134.80000,-13.48037,-11.12316
134.90002,-13.49050,-11.15635
135.00000,-13.50063,-11.17905
135.10000,-13.51050,-11.17143
135.20002,-13.52037,-11.15685
135.30000,-13.53050,-11.18353
135.40002,-13.54010,-11.19293
135.50000,-13.55023,-11.19895
135.60000,-13.56037,-11.19594
135.70002,-13.57010,-11.19481
135.80000,-13.58050,-11.22626
135.90002,-13.59050,-11.23821
136.00000,-13.60037,-11.23236
136.10000,-13.61050,-11.22905
136.20002,-13.62037,-11.25709
136.30000,-13.63050,-11.25748
136.40002,-13.64050,-11.26798
136.50000,-13.65050,-11.28691
136.60000,-13.66037,-11.29783
136.70002,-13.67023,-11.31232
136.80000,-13.68050,-11.34005
136.90002,-13.69010,-11.36702
137.00000,-13.70050,-11.37483
137.10000,-13.71037,-11.38475
137.20002,-13.72023,-11.41958
137.30000,-13.73063,-11.44619
137.40002,-13.74037,-11.44404
137.50000,-13.75023,-11.45018
137.60000,-13.76063,-11.45927
137.70002,-13.77037,-11.48302
137.80000,-13.78037,-11.49116
137.90002,-13.79037,-11.48930
138.00000,-13.80023,-11.50059
138.10000,-13.81037,-11.52287
138.20002,-13.82037,-11.54190
138.30000,-13.83023,-11.56359
138.40002,-13.84023,-11.57833
138.50000,-13.85037,-11.60497
138.60000,-13.86050,-11.62627
138.70002,-13.87023,-11.63733
138.80000,-13.88050,-11.65462
138.90002,-13.89050,-11.67442
139.00000,-13.90023,-11.68934
139.10000,-13.91077,-11.70294
139.20002,-13.92037,-11.71589
139.30000,-13.93023,-11.71287
139.40002,-13.94050,-11.73569
139.50000,-13.95010,-11.74706
139.60000,-13.96023,-11.76307
139.70002,-13.97050,-11.78923
139.80000,-13.98037,-11.82569
139.90002,-13.99037,-11.83207
140.00000,-14.00037,-11.85122
140.10000,-14.01050,-11.84908
140.20002,-14.02050,-11.88537
140.30000,-14.03077,-11.88608
140.40002,-14.04050,-11.90155
140.50000,-14.05023,-11.92137
140.60000,-14.06063,-11.91693
140.70002,-14.07037,-11.93529
140.80000,-14.08023,-11.94911
140.90002,-14.09050,-11.98633
141.00000,-14.10023,-11.99911
141.10000,-14.11037,-12.01474
141.20002,-14.12063,-12.04508
141.30000,-14.13037,-12.05888
141.40002,-14.14050,-12.08573
141.50000,-14.15063,-12.09831
141.60000,-14.16050,-12.10483
141.70002,-14.17050,-12.13213
141.80000,-14.18050,-12.17171
141.90002,-14.19050,-12.19050
142.00000,-14.20037,-12.20495
142.10000,-14.21063,-12.22670
142.20002,-14.22023,-12.24930
142.30000,-14.23010,-12.27140
142.40002,-14.24063,-12.28790
142.50000,-14.25023,-12.28585
142.60000,-14.26050,-12.29315
142.70002,-14.27063,-12.32699
142.80000,-14.28010,-12.35315
142.90002,-14.29050,-12.38543
143.00000,-14.30063,-12.40764
143.10000,-14.31036,-12.40036
143.20002,-14.32037,-12.42879
143.30000,-14.33023,-12.44207
143.40002,-14.34037,-12.45604
143.50000,-14.35023,-12.47761
143.60000,-14.36023,-12.48260
143.70002,-14.37023,-12.51659
143.80000,-14.38010,-12.54779
143.90002,-14.39050,-12.57443
144.00000,-14.40036,-12.58218
144.10000,-14.41036,-12.59952
144.20002,-14.42063,-12.63671
144.30000,-14.43023,-12.64091
144.40002,-14.44063,-12.68246
144.50000,-14.45050,-12.69905
144.60000,-14.46010,-12.71112
144.70002,-14.47050,-12.74282
144.80000,-14.48050,-12.73188
144.90002,-14.49023,-12.76757
145.00000,-14.50036,-12.79819
145.10000,-14.51036,-12.80397
145.20002,-14.52036,-12.83492
145.30000,-14.53036,-12.85988
145.40002,-14.54050,-12.88863
145.50000,-14.55036,-12.91704
145.60000,-14.56050,-12.75065
145.70002,-14.57063,-12.81316
145.80000,-14.58023,-12.83910
145.90002,-14.59050,-12.86574
146.00000,-14.60050,-12.89968
146.10000,-14.61010,-12.90752
146.20002,-14.62050,-12.92919
146.30000,-14.63023,-12.95876
146.40002,-14.64023,-12.99673
146.50000,-14.65050,-13.01565
146.60000,-14.66023,-13.02588
146.70002,-14.67036,-13.04080
146.80000,-14.68050,-13.05934
146.90002,-14.69050,-13.10175
147.00000,-14.70036,-13.13488
147.10000,-14.71036,-13.15017
147.20002,-14.72050,-13.18342
147.30000,-14.73036,-13.21720
147.40002,-14.74050,-13.24152
147.50000,-14.75036,-13.26389
147.60000,-14.76010,-13.27709
147.70002,-14.77063,-13.30816
147.80000,-14.78036,-13.32915
147.90002,-14.79023,-13.35648
148.00000,-14.80063,-13.37758
148.10000,-14.81036,-13.38879
148.20002,-14.82050,-13.42532
148.30000,-14.83063,-13.43392
148.40002,-14.84023,-13.43835
148.50000,-14.85050,-13.45987
148.60000,-14.86050,-13.49954
148.70002,-14.87023,-13.53366
148.80000,-14.88023,-13.55015
148.90002,-14.89010,-13.57682
149.00000,-14.90023,-13.61238
149.10000,-14.91023,-13.62936
149.20002,-14.92050,-13.68169
149.30000,-14.93036,-13.70920
149.40002,-14.94023,-13.73694
149.50000,-14.95063,-13.76517
149.60000,-14.96023,-13.78895
149.70002,-14.97036,-13.81283
149.80000,-14.98050,-13.84487
149.90002,-14.99010,-13.85188
150.00000,-15.00036,-13.88898
150.10000,-15.01050,-13.91715
150.20002,-15.02023,-13.94637
150.30000,-15.03023,-13.98327
150.40002,-15.04036,-14.00254
150.50000,-15.05036,-14.01938
150.60000,-15.06050,-14.04893
150.70002,-15.07050,-14.07265
150.80000,-15.08036,-14.10821
150.90002,-15.09036,-14.14606
151.00000,-15.10063,-14.18201
151.10000,-15.11050,-14.19368
151.20002,-15.12023,-14.22773
151.30000,-15.13050,-14.27433
151.40002,-15.14023,-14.27166
151.50000,-15.15036,-14.29105
151.60000,-15.16050,-14.31614
151.70002,-15.17010,-14.34434
151.80000,-15.18036,-14.38260
151.90002,-15.19050,-14.40047
152.00000,-15.20036,-14.43780
152.10000,-15.21050,-14.46219
152.20002,-15.22036,-14.49412
152.30000,-15.23050,-14.53770
152.40002,-15.24050,-14.57405
152.50000,-15.25063,-14.61519
152.60000,-15.26023,-14.63908
152.70002,-15.27023,-14.66441
152.80000,-15.28063,-14.70677
152.90002,-15.29023,-14.73225
153.00000,-15.30036,-14.75909
153.10000,-15.31050,-14.76607
153.20002,-15.32010,-14.80451
153.30000,-15.33050,-14.84399
153.40002,-15.34050,-14.87755
153.50000,-15.35036,-14.90960
153.60000,-15.36050,-14.94398
153.70002,-15.37036,-14.97371
153.80000,-15.38036,-15.00024
153.90002,-15.39036,-15.00511
154.00000,-15.40036,-15.03735
154.10000,-15.41036,-15.06668
154.20002,-15.42023,-15.11426
154.30000,-15.43023,-15.14886
154.40002,-15.44023,-15.17367
154.50000,-15.45036,-15.19105
154.60000,-15.46063,-15.22774
154.70002,-15.47036,-15.24903
154.80000,-15.48063,-15.30283
154.90002,-15.49063,-15.33046
155.00000,-15.50023,-15.35935
155.10000,-15.51063,-15.40135
155.20002,-15.52036,-15.44626
155.30000,-15.53036,-15.48364
155.40002,-15.54036,-15.52061
155.50000,-15.55010,-15.55552
155.60000,-15.56023,-15.56111
155.70002,-15.57036,-15.62276
155.80000,-15.58036,-15.65912
155.90002,-15.59036,-15.70172
156.00000,-15.60036,-15.74226
156.10000,-15.61050,-15.77565
156.20002,-15.62050,-15.80382
156.30000,-15.63049,-15.84978
156.40002,-15.64036,-15.89214
156.50000,-15.65010,-15.92035
156.60000,-15.66063,-15.96018
156.70002,-15.67050,-15.99914
156.80000,-15.68036,-16.03161
156.90002,-15.69050,-16.06923
157.00000,-15.70023,-16.11596
157.10000,-15.71023,-16.15523
157.20002,-15.72063,-16.22048
157.30000,-15.73036,-16.25066
157.40002,-15.74050,-16.30675
157.50000,-15.75063,-16.34822
157.60000,-15.76036,-16.37362
157.70002,-15.77049,-16.40584
157.80000,-15.78050,-16.45624
157.90002,-15.79036,-16.49615
158.00000,-15.80023,-16.52719
158.10000,-15.81063,-16.55291
158.20002,-15.82036,-16.59058
158.30000,-15.83010,-16.61372
158.40002,-15.84063,-16.66863
158.50000,-15.85010,-16.69718
158.60000,-15.86049,-16.74399
158.70002,-15.87063,-16.79769
158.80000,-15.88023,-16.84469
158.90002,-15.89063,-16.86688
159.00000,-15.90049,-16.90699
159.10000,-15.91036,-16.93287
159.20002,-15.92036,-16.98339
159.30000,-15.93023,-17.02669
159.40002,-15.94023,-17.06788
159.50000,-15.95023,-17.12151
159.60000,-15.96036,-17.14016
159.70002,-15.97036,-17.19408
159.80000,-15.98009,-17.24465
159.90002,-15.99049,-17.27786
160.00000,-16.00023,-17.32128
160.10000,-16.01023,-17.35407
160.20002,-16.02063,-17.42612
160.25202,-16.02569,-17.43897
